Folder: upr_work/DATA-PRACTICUM1/exercises/data/multi_csv (part 5)

File: 60H_1_A.csv
Filename,60H_1_A
Instrument name,RSAG2
Operator,
rundate,5/30/2018
proceduresegments,Standard Oscillatory Temperature Ramp
[step]
Temperature Ramp - 1
Angular frequency,Step time,Temperature,Oscillation strain,Oscillation stress,Tan(delta),Storage modulus,Loss modulus,Complex modulus
rad/s,s,Â°C,%,Pa,,Pa,Pa,Pa
6.28319,8.02500,28.972,0.0172981,188437,0.0516722,1.08790e9,5.62142e7,1.08935e9
6.28319,16.3063,30.753,0.0173038,187980,0.0501033,1.08499e9,5.43615e7,1.08635e9
6.28319,24.5917,32.935,0.0173177,186900,0.0506840,1.07786e9,5.46303e7,1.07924e9
6.28319,32.8750,35.461,0.0173414,185516,0.0524761,1.06832e9,5.60613e7,1.06979e9
6.28319,41.1603,38.127,0.0173690,183583,0.0534910,1.05545e9,5.64569e7,1.05695e9
6.28319,49.4437,40.901,0.0174059,181244,0.0557799,1.03966e9,5.79924e7,1.04128e9
6.28319,57.7290,43.751,0.0174479,178580,0.0583485,1.02177e9,5.96186e7,1.02350e9
6.28319,66.0123,46.582,0.0174976,175320,0.0619559,1.00005e9,6.19588e7,1.00196e9
6.28319,74.2977,49.409,0.0175519,171829,0.0650907,9.76909e8,6.35877e7,9.78976e8
6.28319,82.5810,52.267,0.0176084,167932,0.0687711,9.51459e8,6.54329e7,9.53706e8
6.28319,90.8663,55.035,0.0176711,163878,0.0715143,9.25017e8,6.61520e7,9.27380e8
6.28319,99.1497,57.805,0.0177404,159352,0.0771772,8.95577e8,6.91181e7,8.98240e8
6.28319,107.435,60.580,0.0178125,154494,0.0811313,8.64492e8,7.01374e7,8.67333e8
6.28319,115.718,63.350,0.0178849,149695,0.0860403,8.33907e8,7.17496e7,8.36988e8
6.28319,124.004,66.144,0.0179613,144441,0.0918960,8.00805e8,7.35908e7,8.04179e8
6.28319,132.287,68.994,0.0180380,139345,0.0961080,7.68963e8,7.39035e7,7.72506e8
6.28319,140.572,71.767,0.0181140,133944,0.102375,7.35603e8,7.53077e7,7.39448e8
6.28319,148.856,74.526,0.0181920,128770,0.108596,7.03699e8,7.64190e7,7.07837e8
6.28319,157.141,77.299,0.0182597,123934,0.113240,6.74420e8,7.63714e7,6.78730e8
6.28319,165.424,80.085,0.0183293,119037,0.117086,6.45029e8,7.55240e7,6.49435e8
6.28319,173.710,82.909,0.0183895,114795,0.122286,6.19623e8,7.57713e7,6.24238e8
6.28319,181.995,85.678,0.0184498,110464,0.126758,5.93975e8,7.52909e7,5.98728e8
6.28319,190.278,88.462,0.0185049,106492,0.129903,5.70681e8,7.41331e7,5.75476e8
6.28319,198.564,91.218,0.0185604,102525,0.133721,5.47512e8,7.32138e7,5.52386e8
6.28319,206.849,94.059,0.0186111,98793.2,0.136291,5.25967e8,7.16845e7,5.30829e8
6.28319,215.132,96.803,0.0186634,94959.2,0.140509,5.03849e8,7.07951e7,5.08798e8
6.28319,223.418,99.575,0.0187118,91322.2,0.143854,4.83073e8,6.94920e7,4.88046e8
6.28319,231.701,102.364,0.0187587,87768.4,0.147447,4.62876e8,6.82497e7,4.67880e8
6.28319,239.986,105.132,0.0188020,84457.0,0.150196,4.44208e8,6.67183e7,4.49191e8
6.28319,248.270,107.908,0.0188452,81229.9,0.152096,4.26138e8,6.48137e7,4.31039e8
6.28319,256.555,110.697,0.0188876,77929.8,0.157606,4.07567e8,6.42351e7,4.12598e8
6.28319,264.838,113.460,0.0189275,74778.2,0.158721,3.90193e8,6.19317e7,3.95077e8
6.28319,273.124,116.215,0.0189648,71919.3,0.161934,3.74348e8,6.06198e7,3.79224e8
6.28319,285.858,120.476,0.0190174,67728.5,0.166830,3.51284e8,5.86046e7,3.56139e8
6.28319,294.128,123.223,0.0190517,65076.5,0.170899,3.36697e8,5.75411e7,3.41578e8
6.28319,302.413,126.021,0.0190833,62537.7,0.172472,3.22942e8,5.56985e7,3.27710e8
6.28319,310.697,128.798,0.0191152,60018.7,0.175235,3.09271e8,5.41953e7,3.13984e8
6.28319,318.982,130.257,0.0191454,57491.9,0.177406,2.95674e8,5.24544e7,3.00291e8
6.28319,333.896,130.172,0.0191671,55194.7,0.171511,2.83822e8,4.86786e7,2.87966e8

File: 60H_4_B.csv
Filename,60H_4_B
Instrument name,RSAG2
Operator,
rundate,5/31/2018
proceduresegments,Standard Oscillatory Temperature Ramp
[step]
Temperature Ramp - 1
Angular frequency,Step time,Temperature,Oscillation strain,Oscillation stress,Tan(delta),Storage modulus,Loss modulus,Complex modulus
rad/s,s,Â°C,%,Pa,,Pa,Pa,Pa
6.28319,8.02517,29.571,0.0148546,282758,0.0385695,1.90209e9,7.33628e7,1.90351e9
6.28319,16.3065,31.133,0.0148572,282615,0.0380312,1.90083e9,7.22908e7,1.90220e9
6.28319,24.5920,33.082,0.0148688,281952,0.0382794,1.89487e9,7.25345e7,1.89626e9
6.28319,32.8752,35.644,0.0148938,280815,0.0392314,1.88401e9,7.39123e7,1.88546e9
6.28319,41.1605,38.181,0.0149268,279314,0.0412273,1.86963e9,7.70798e7,1.87122e9
6.28319,49.4438,40.863,0.0149775,276874,0.0422408,1.84696e9,7.80171e7,1.84861e9
6.28319,57.7292,43.736,0.0150377,273986,0.0448104,1.82017e9,8.15626e7,1.82200e9
6.28319,66.0125,46.580,0.0151157,270229,0.0476199,1.78571e9,8.50355e7,1.78774e9
6.28319,74.2978,49.424,0.0151915,266597,0.0501103,1.75271e9,8.78286e7,1.75490e9
6.28319,82.5812,52.236,0.0152757,262322,0.0524685,1.71490e9,8.99779e7,1.71725e9
6.28319,90.8665,54.995,0.0153755,257474,0.0558754,1.67196e9,9.34214e7,1.67457e9
6.28319,99.1498,57.776,0.0154848,252083,0.0598904,1.62502e9,9.73234e7,1.62794e9
6.28319,107.435,60.575,0.0156071,246017,0.0629608,1.57320e9,9.90499e7,1.57631e9
6.28319,115.719,63.342,0.0157308,239750,0.0675089,1.52062e9,1.02655e8,1.52408e9
6.28319,124.004,66.115,0.0158659,233090,0.0725915,1.46527e9,1.06366e8,1.46912e9
6.28319,132.287,68.896,0.0160035,226150,0.0768608,1.40897e9,1.08295e8,1.41313e9
6.28319,140.573,71.677,0.0161429,218863,0.0812951,1.35132e9,1.09856e8,1.35578e9
6.28319,148.856,74.462,0.0162764,211949,0.0846820,1.29754e9,1.09879e8,1.30219e9
6.28319,157.141,77.298,0.0164135,204846,0.0912434,1.24287e9,1.13404e8,1.24803e9
6.28319,165.424,80.079,0.0165451,198071,0.0936325,1.19194e9,1.11605e8,1.19716e9
6.28319,173.710,82.874,0.0166611,191774,0.0969730,1.14565e9,1.11097e8,1.15103e9
6.28319,181.993,85.656,0.0167804,185253,0.0999399,1.09851e9,1.09785e8,1.10398e9
6.28319,190.279,88.463,0.0168857,179700,0.104126,1.05849e9,1.10216e8,1.06421e9
6.28319,198.564,91.256,0.0169876,174026,0.107226,1.01859e9,1.09220e8,1.02443e9
6.28319,206.847,94.040,0.0170878,168727,0.110227,9.81467e8,1.08185e8,9.87411e8
6.28319,215.133,96.802,0.0171716,164153,0.114547,9.49746e8,1.08790e8,9.55956e8
6.28319,223.416,99.562,0.0172576,159338,0.116453,9.17094e8,1.06799e8,9.23291e8
6.28319,231.701,102.321,0.0173433,154597,0.120134,8.85028e8,1.06322e8,8.91392e8
6.28319,239.984,105.144,0.0174196,150319,0.122259,8.56548e8,1.04720e8,8.62925e8
6.28319,248.270,107.888,0.0174961,146135,0.124566,8.28839e8,1.03245e8,8.35244e8
6.28319,256.553,110.647,0.0175663,142116,0.127307,8.02550e8,1.02170e8,8.09027e8
6.28319,264.839,113.403,0.0176412,137984,0.130243,7.75616e8,1.01019e8,7.82167e8
6.28319,273.122,116.192,0.0177122,134028,0.134640,7.49934e8,1.00971e8,7.56700e8
6.28319,281.407,118.948,0.0177781,130168,0.135381,7.25564e8,9.82273e7,7.32183e8
6.28319,289.887,121.745,0.0178452,126187,0.139982,7.00293e8,9.80282e7,7.07121e8
6.28319,298.130,124.569,0.0179256,121671,0.144475,6.71782e8,9.70554e7,6.78757e8
6.28319,306.413,127.336,0.0180001,117515,0.149234,6.45708e8,9.63616e7,6.52858e8
6.28319,314.699,130.107,0.0180768,113088,0.152733,6.18425e8,9.44540e7,6.25596e8
6.28319,322.982,130.169,0.0181356,109374,0.153428,5.96118e8,9.14609e7,6.03094e8
6.28319,331.267,130.206,0.0181752,106872,0.153228,5.81228e8,8.90606e7,5.88011e8

File: 60I_1_A.csv
Filename,60I_1_A
Instrument name,RSAG2
Operator,
rundate,5/30/2018
proceduresegments,Standard Oscillatory Temperature Ramp
[step]
Temperature Ramp - 1
Angular frequency,Step time,Temperature,Oscillation strain,Oscillation stress,Tan(delta),Storage modulus,Loss modulus,Complex modulus
rad/s,s,Â°C,%,Pa,,Pa,Pa,Pa
6.28319,8.02500,29.027,0.0156018,209433,0.0463617,1.34092e9,6.21676e7,1.34236e9
6.28319,16.3083,30.797,0.0156087,209065,0.0453898,1.33803e9,6.07330e7,1.33941e9
6.28319,24.5917,33.014,0.0156268,208264,0.0463503,1.33131e9,6.17064e7,1.33273e9
6.28319,32.8772,35.553,0.0156528,207078,0.0464517,1.32152e9,6.13869e7,1.32295e9
6.28319,41.1603,38.163,0.0156952,205281,0.0484974,1.30638e9,6.33562e7,1.30792e9
6.28319,49.4457,40.900,0.0157474,203119,0.0504461,1.28822e9,6.49854e7,1.28985e9
6.28319,57.7292,43.751,0.0158094,200540,0.0531710,1.26669e9,6.73513e7,1.26848e9
6.28319,66.0143,46.629,0.0158810,197628,0.0566127,1.24245e9,7.03382e7,1.24443e9
6.28319,77.8877,50.657,0.0159960,192709,0.0607912,1.20251e9,7.31022e7,1.20473e9
6.28319,86.1528,53.426,0.0160836,189075,0.0661528,1.17301e9,7.75976e7,1.17557e9
6.28319,94.4382,56.190,0.0161851,184841,0.0701341,1.13925e9,7.99001e7,1.14205e9
6.28319,102.722,58.965,0.0162877,180385,0.0750951,1.10438e9,8.29334e7,1.10749e9
6.28319,122.843,65.764,0.0165697,167865,0.0877048,1.00921e9,8.85128e7,1.01309e9
6.28319,131.121,68.546,0.0166924,162236,0.0937090,9.67673e8,9.06796e7,9.71912e8
6.28319,139.406,71.337,0.0168163,156611,0.0969469,9.26956e8,8.98655e7,9.31302e8
6.28319,147.690,74.126,0.0169375,151117,0.102724,8.87531e8,9.11708e7,8.92202e8
6.28319,155.975,76.949,0.0170517,145955,0.108863,8.50933e8,9.26349e7,8.55960e8
6.28319,164.852,79.936,0.0171678,140493,0.112490,8.13225e8,9.14798e7,8.18354e8
6.28319,173.104,82.693,0.0172655,135875,0.116173,7.81715e8,9.08142e7,7.86973e8
6.28319,181.389,85.479,0.0173597,131386,0.118269,7.51607e8,8.88918e7,7.56846e8
6.28319,189.673,88.233,0.0174495,127088,0.121963,7.22960e8,8.81747e7,7.28318e8
6.28319,197.958,90.985,0.0175386,122856,0.125376,6.95045e8,8.71417e7,7.00486e8
6.28319,206.241,93.818,0.0176281,118666,0.129594,6.67581e8,8.65147e7,6.73164e8
6.28319,214.527,96.581,0.0177123,114549,0.133867,6.41004e8,8.58093e7,6.46722e8
6.28319,222.810,99.355,0.0177937,110541,0.135463,6.15611e8,8.33927e7,6.21233e8
6.28319,231.095,102.134,0.0178730,106632,0.139261,5.90903e8,8.22900e7,5.96606e8
6.28319,239.378,104.879,0.0179523,102826,0.142774,5.67023e8,8.09562e7,5.72773e8
6.28319,247.664,107.703,0.0180282,98956.9,0.145262,5.43199e8,7.89064e7,5.48901e8
6.28319,255.947,110.483,0.0180993,95201.9,0.145899,5.20488e8,7.59384e7,5.25998e8
6.28319,264.233,113.251,0.0181715,91738.4,0.151172,4.99177e8,7.54617e7,5.04849e8
6.28319,272.516,115.996,0.0182385,88225.8,0.153651,4.78123e8,7.34641e7,4.83734e8
6.28319,287.829,121.143,0.0183578,82142.9,0.157057,4.42037e8,6.94251e7,4.47456e8
6.28319,296.072,123.873,0.0184190,79023.6,0.162072,4.23507e8,6.86385e7,4.29033e8
6.28319,304.355,126.614,0.0184797,75951.0,0.165025,4.05513e8,6.69197e7,4.10997e8
6.28319,312.641,129.374,0.0185365,72926.0,0.167739,3.87997e8,6.50823e7,3.93418e8
6.28319,320.924,130.039,0.0185878,70207.5,0.169556,3.72393e8,6.31416e7,3.77708e8
6.28319,329.209,130.205,0.0186147,68487.1,0.166000,3.62952e8,6.02501e7,3.67919e8

File: 60I_4_B.csv
Filename,60I_4_B
Instrument name,RSAG2
Operator,
rundate,5/31/2018
proceduresegments,Standard Oscillatory Temperature Ramp
[step]
Temperature Ramp - 1
Angular frequency,Step time,Temperature,Oscillation strain,Oscillation stress,Tan(delta),Storage modulus,Loss modulus,Complex modulus
rad/s,s,Â°C,%,Pa,,Pa,Pa,Pa
6.28319,8.02500,28.880,0.0167029,243689,0.0404742,1.45777e9,5.90022e7,1.45897e9
6.28319,16.3083,30.693,0.0167108,243126,0.0406555,1.45371e9,5.91011e7,1.45491e9
6.28319,24.5918,32.958,0.0167244,242230,0.0413985,1.44713e9,5.99089e7,1.44837e9
6.28319,32.8773,35.498,0.0167507,240510,0.0425292,1.43453e9,6.10093e7,1.43582e9
6.28319,41.1605,38.119,0.0167827,238401,0.0445891,1.41911e9,6.32769e7,1.42052e9
6.28319,49.4458,40.901,0.0168226,235767,0.0465880,1.39997e9,6.52218e7,1.40149e9
6.28319,57.7293,43.763,0.0168707,232618,0.0496930,1.37713e9,6.84338e7,1.37883e9
6.28319,66.0145,46.662,0.0169217,228965,0.0518191,1.35127e9,7.00219e7,1.35309e9
6.28319,74.2978,49.504,0.0169850,224776,0.0562328,1.32129e9,7.42998e7,1.32338e9
6.28319,82.5833,52.305,0.0170550,219967,0.0597977,1.28745e9,7.69864e7,1.28975e9
6.28319,90.8665,55.083,0.0171293,214774,0.0629617,1.25136e9,7.87879e7,1.25384e9
6.28319,99.1518,57.844,0.0172144,209142,0.0685899,1.21208e9,8.31361e7,1.21492e9
6.28319,114.374,63.020,0.0173776,197192,0.0767696,1.13142e9,8.68584e7,1.13475e9
6.28319,122.656,65.789,0.0174755,190408,0.0844284,1.08571e9,9.16645e7,1.08957e9
6.28319,130.942,68.556,0.0175699,183606,0.0876522,1.04101e9,9.12471e7,1.04501e9
6.28319,139.227,71.328,0.0176613,176916,0.0909284,9.97600e8,9.07102e7,1.00172e9
6.28319,147.510,74.100,0.0177576,170143,0.0989991,9.53477e8,9.43934e7,9.58138e8
6.28319,155.795,76.916,0.0178406,163778,0.101935,9.13275e8,9.30952e7,9.18008e8
6.28319,164.079,79.649,0.0179260,157751,0.107576,8.74961e8,9.41246e7,8.80009e8
6.28319,172.364,82.389,0.0180032,151956,0.109981,8.38996e8,9.22736e7,8.44055e8
6.28319,180.647,85.148,0.0180713,146795,0.114717,8.07019e8,9.25788e7,8.12312e8
6.28319,188.933,87.917,0.0181364,141687,0.116137,7.76016e8,9.01244e7,7.81232e8
6.28319,197.216,90.737,0.0182010,136621,0.119178,7.45350e8,8.88294e7,7.50625e8
6.28319,205.501,93.490,0.0182620,131939,0.122703,7.17101e8,8.79902e7,7.22479e8
6.28319,213.785,96.274,0.0183125,127902,0.125080,6.93040e8,8.66855e7,6.98440e8
6.28319,222.070,99.053,0.0183756,123279,0.129292,6.65347e8,8.60238e7,6.70885e8
6.28319,234.380,103.216,0.0184494,117297,0.130454,6.30435e8,8.22427e7,6.35777e8
6.28319,242.668,105.986,0.0185002,113476,0.136437,6.07749e8,8.29193e7,6.13379e8
6.28319,250.954,108.765,0.0185537,109466,0.140455,5.84260e8,8.20622e7,5.89995e8
6.28319,259.237,111.517,0.0186009,105425,0.141209,5.61207e8,7.92473e7,5.66774e8
6.28319,267.522,114.319,0.0186485,101904,0.146668,5.40663e8,7.92982e7,5.46447e8
6.28319,275.806,117.144,0.0186966,97902.2,0.149072,5.17913e8,7.72064e7,5.23636e8
6.28319,284.091,119.905,0.0187456,94067.3,0.152252,4.96093e8,7.55314e7,5.01810e8
6.28319,292.374,122.673,0.0187963,90152.8,0.155731,4.73917e8,7.38034e7,4.79629e8
6.28319,300.660,125.437,0.0188406,86387.5,0.158153,4.52888e8,7.16257e7,4.58517e8
6.28319,313.892,129.910,0.0189169,80231.9,0.166501,4.18369e8,6.96587e7,4.24128e8
6.28319,328.906,130.271,0.0189631,75915.8,0.165464,3.94965e8,6.53523e7,4.00335e8