Folder: upr_work/DATA-PRACTICUM1/exercises/data/multi_csv

Note: DATA-PRACTICUM1/Readme.md
# Data practicum 1 
1. R gsoc projects 
https://github.com/rstats-gsoc

File: 50A_1_A.csv
Filename,50A_1_A
Instrument name,RSAG2
Operator,
rundate,5/28/2018
proceduresegments,Standard Oscillatory Temperature Ramp
[step]
Temperature Ramp - 1
Angular frequency,Step time,Temperature,Oscillation strain,Oscillation stress,Tan(delta),Storage modulus,Loss modulus,Complex modulus
rad/s,s,Â°C,%,Pa,,Pa,Pa,Pa
6.28319,8.02517,31.343,0.0169265,207710,0.0473507,1.22575e9,5.80403e7,1.22713e9
6.28319,16.3065,33.319,0.0169333,207266,0.0475563,1.22263e9,5.81439e7,1.22401e9
6.28319,24.5918,35.818,0.0169502,206217,0.0477579,1.21522e9,5.80364e7,1.21660e9
6.28319,32.8752,38.452,0.0169747,204538,0.0487602,1.20353e9,5.86844e7,1.20496e9
6.28319,41.1605,41.201,0.0170098,202455,0.0517414,1.18864e9,6.15018e7,1.19023e9
6.28319,49.4438,44.086,0.0170471,200445,0.0547471,1.17407e9,6.42770e7,1.17583e9
6.28319,57.7292,46.935,0.0170882,197780,0.0556184,1.15562e9,6.42737e7,1.15741e9
6.28319,66.0125,49.770,0.0171394,194711,0.0599805,1.13400e9,6.80181e7,1.13604e9
6.28319,74.2978,52.587,0.0171970,191160,0.0628615,1.10940e9,6.97387e7,1.11159e9
6.28319,83.3732,55.691,0.0172621,187129,0.0671879,1.08160e9,7.26708e7,1.08404e9
6.28319,91.6305,58.469,0.0173230,183096,0.0703074,1.05435e9,7.41287e7,1.05695e9
6.28319,99.9158,61.245,0.0174028,178231,0.0757158,1.02123e9,7.73233e7,1.02415e9
6.28319,108.199,64.042,0.0174739,173659,0.0803904,9.90618e8,7.96362e7,9.93814e8
6.28319,116.485,66.809,0.0175532,168575,0.0853998,9.56885e8,8.17179e7,9.60368e8
6.28319,124.768,69.592,0.0176340,163421,0.0900398,9.23002e8,8.31068e7,9.26735e8
6.28319,139.358,74.508,0.0177636,154638,0.0967659,8.66484e8,8.38461e7,8.70532e8
6.28319,152.369,78.869,0.0178733,147346,0.105182,8.19867e8,8.62355e7,8.24390e8
6.28319,160.637,81.650,0.0179371,142966,0.108108,7.92426e8,8.56674e7,7.97043e8
6.28319,168.920,84.477,0.0180013,138621,0.110724,7.65384e8,8.47462e7,7.70061e8
6.28319,177.206,87.270,0.0180617,134440,0.114527,7.39503e8,8.46931e7,7.44337e8
6.28319,185.489,90.018,0.0181205,130368,0.116919,7.14585e8,8.35489e7,7.19453e8
6.28319,193.774,92.753,0.0181778,126383,0.119306,6.90365e8,8.23646e7,6.95261e8
6.28319,202.060,95.487,0.0182321,122586,0.122621,6.67362e8,8.18327e7,6.72361e8
6.28319,210.343,98.272,0.0182873,118835,0.126813,6.44659e8,8.17509e7,6.49822e8
6.28319,218.628,100.989,0.0183389,115179,0.128886,6.22908e8,8.02841e7,6.28060e8
6.28319,226.914,103.770,0.0183935,111396,0.131276,6.00473e8,7.88276e7,6.05625e8
6.28319,235.197,106.527,0.0184436,107799,0.135169,5.79215e8,7.82921e7,5.84483e8
6.28319,243.482,109.301,0.0184903,104265,0.136013,5.58746e8,7.59967e7,5.63890e8
6.28319,251.766,112.055,0.0185397,100779,0.137954,5.38483e8,7.42860e7,5.43583e8
6.28319,260.051,114.861,0.0185837,97337.0,0.139466,5.18757e8,7.23490e7,5.23777e8
6.28319,268.334,117.590,0.0186347,93977.4,0.143702,4.99186e8,7.17340e7,5.04314e8
6.28319,276.620,120.348,0.0186781,90629.7,0.145008,4.80198e8,6.96326e7,4.85220e8
6.28319,284.903,123.184,0.0187192,87616.7,0.146979,4.63083e8,6.80634e7,4.68059e8
6.28319,293.188,125.939,0.0187604,84614.0,0.150170,4.46023e8,6.69793e7,4.51024e8
6.28319,301.472,128.718,0.0188012,81515.4,0.152423,4.28614e8,6.53305e7,4.33565e8
6.28319,309.757,130.334,0.0188357,78809.1,0.151793,4.13666e8,6.27915e7,4.18404e8
6.28319,318.041,130.206,0.0188512,77275.5,0.149287,4.05430e8,6.05255e7,4.09923e8

File: 50A_4_B.csv
Filename,50A_4_B
Instrument name,RSAG2
Operator,
rundate,5/29/2018
proceduresegments,Standard Oscillatory Temperature Ramp
[step]
Temperature Ramp - 1
Angular frequency,Step time,Temperature,Oscillation strain,Oscillation stress,Tan(delta),Storage modulus,Loss modulus,Complex modulus
rad/s,s,Â°C,%,Pa,,Pa,Pa,Pa
6.28319,8.02517,30.846,0.0154987,250716,0.0383246,1.61647e9,6.19506e7,1.61766e9
6.28319,16.3065,33.223,0.0155136,249883,0.0391556,1.60950e9,6.30209e7,1.61073e9
6.28319,24.5920,35.774,0.0155414,248436,0.0396353,1.59729e9,6.33092e7,1.59855e9
6.28319,32.8752,38.531,0.0155784,246649,0.0405058,1.58197e9,6.40791e7,1.58327e9
6.28319,41.1605,41.337,0.0156228,244361,0.0419671,1.56275e9,6.55842e7,1.56413e9
6.28319,52.3862,45.204,0.0157034,240424,0.0447428,1.52951e9,6.84345e7,1.53104e9
6.28319,60.6352,48.043,0.0157719,236947,0.0477483,1.50063e9,7.16523e7,1.50234e9
6.28319,68.9203,50.858,0.0158454,233384,0.0511811,1.47096e9,7.52852e7,1.47288e9
6.28319,77.2038,53.630,0.0159288,229141,0.0542078,1.43642e9,7.78652e7,1.43853e9
6.28319,85.4890,56.404,0.0160281,224178,0.0581279,1.39630e9,8.11642e7,1.39866e9
6.28319,93.7725,59.228,0.0161302,218902,0.0600866,1.35465e9,8.13965e7,1.35710e9
6.28319,103.396,62.447,0.0162509,212380,0.0663641,1.30402e9,8.65399e7,1.30689e9
6.28319,117.391,67.160,0.0164565,201867,0.0744261,1.22328e9,9.10443e7,1.22667e9
6.28319,125.664,69.946,0.0165796,195390,0.0800733,1.17473e9,9.40646e7,1.17849e9
6.28319,133.948,72.704,0.0167156,188262,0.0842773,1.12229e9,9.45835e7,1.12627e9
6.28319,142.233,75.485,0.0168400,181554,0.0887244,1.07389e9,9.52805e7,1.07811e9
6.28319,150.516,78.263,0.0169651,174954,0.0941244,1.02672e9,9.66394e7,1.03126e9
6.28319,158.802,81.075,0.0170905,168263,0.0981492,9.79835e8,9.61700e7,9.84543e8
6.28319,167.085,83.812,0.0172068,161920,0.104272,9.35946e8,9.75926e7,9.41021e8
6.28319,175.370,86.621,0.0173177,155771,0.105784,8.94501e8,9.46239e7,8.99492e8
6.28319,183.654,89.384,0.0174089,150399,0.108349,8.58891e8,9.30596e7,8.63918e8
6.28319,191.939,92.190,0.0175084,145158,0.114055,8.23735e8,9.39508e7,8.29076e8
6.28319,200.222,94.956,0.0175962,139989,0.114921,7.90363e8,9.08291e7,7.95565e8
6.28319,208.507,97.719,0.0176802,135093,0.117687,7.58853e8,8.93068e7,7.64090e8
6.28319,216.791,100.474,0.0177558,130651,0.118013,7.30753e8,8.62383e7,7.35824e8
6.28319,225.076,103.231,0.0178270,126495,0.121203,7.04416e8,8.53774e7,7.09571e8
6.28319,233.359,105.992,0.0178981,122508,0.124236,6.79254e8,8.43876e7,6.84476e8
6.28319,241.645,108.801,0.0179617,118676,0.126443,6.55499e8,8.28829e7,6.60718e8
6.28319,249.928,111.565,0.0180249,114925,0.128578,6.32381e8,8.13105e7,6.37587e8
6.28319,258.213,114.317,0.0180881,111277,0.130262,6.10044e8,7.94654e7,6.15197e8
6.28319,266.497,117.095,0.0181492,107687,0.132671,5.88188e8,7.80352e7,5.93341e8
6.28319,274.782,119.840,0.0182066,104305,0.133828,5.67833e8,7.59920e7,5.72895e8
6.28319,283.065,122.665,0.0182640,100859,0.137453,5.47084e8,7.51983e7,5.52228e8
6.28319,291.351,125.411,0.0183195,97633.3,0.139286,5.27852e8,7.35226e7,5.32948e8
6.28319,299.636,128.181,0.0183734,94440.2,0.141928,5.08905e8,7.22280e7,5.14006e8
6.28319,307.919,130.588,0.0184285,91202.1,0.146220,4.89689e8,7.16021e7,4.94896e8
6.28319,316.205,130.318,0.0184533,89394.1,0.143730,4.79508e8,6.89198e7,4.84435e8

File: 50B_1_A.csv
Filename,50B_1_A
Instrument name,RSAG2
Operator,
rundate,5/28/2018
proceduresegments,Standard Oscillatory Temperature Ramp
[step]
Temperature Ramp - 1
Angular frequency,Step time,Temperature,Oscillation strain,Oscillation stress,Tan(delta),Storage modulus,Loss modulus,Complex modulus
rad/s,s,Â°C,%,Pa,,Pa,Pa,Pa
6.28319,8.02517,31.295,0.0165463,218716,0.0447847,1.32052e9,5.91390e7,1.32184e9
6.28319,16.3065,33.272,0.0165543,218117,0.0454203,1.31623e9,5.97836e7,1.31759e9
6.28319,24.5918,35.819,0.0165780,216750,0.0456687,1.30610e9,5.96476e7,1.30746e9
6.28319,32.8753,38.497,0.0166142,214574,0.0469997,1.29009e9,6.06337e7,1.29151e9
6.28319,41.1605,41.228,0.0166549,212175,0.0488207,1.27243e9,6.21211e7,1.27395e9
6.28319,49.4438,44.059,0.0167090,209071,0.0510748,1.24962e9,6.38240e7,1.25125e9
6.28319,57.7292,46.960,0.0167677,205674,0.0536253,1.22485e9,6.56830e7,1.22661e9
6.28319,66.0125,49.808,0.0168359,201808,0.0577711,1.19668e9,6.91334e7,1.19867e9
6.28319,74.2978,52.608,0.0169028,197604,0.0579098,1.16710e9,6.75868e7,1.16906e9
6.28319,82.5812,55.411,0.0169818,193180,0.0644427,1.13522e9,7.31563e7,1.13757e9
6.28319,90.8667,58.165,0.0170640,188343,0.0670332,1.10127e9,7.38218e7,1.10374e9
6.28319,99.1498,60.930,0.0171482,183315,0.0724468,1.06621e9,7.72433e7,1.06900e9
6.28319,107.435,63.759,0.0172446,177730,0.0774943,1.02756e9,7.96301e7,1.03064e9
6.28319,115.718,66.538,0.0173333,172277,0.0815777,9.90620e8,8.08125e7,9.93911e8
6.28319,124.004,69.314,0.0174313,166363,0.0866249,9.50827e8,8.23653e7,9.54388e8
6.28319,132.287,72.087,0.0175227,160781,0.0906500,9.13809e8,8.28368e7,9.17556e8
6.28319,145.888,76.669,0.0176670,151649,0.0965529,8.54403e8,8.24951e7,8.58377e8
6.28319,154.159,79.464,0.0177519,146331,0.101966,8.20059e8,8.36181e7,8.24311e8
6.28319,162.445,82.227,0.0178308,141376,0.104810,7.88558e8,8.26487e7,7.92877e8
6.28319,170.728,85.026,0.0179057,136599,0.108098,7.58464e8,8.19885e7,7.62882e8
6.28319,179.013,87.815,0.0179807,131733,0.112747,7.28020e8,8.20822e7,7.32633e8
6.28319,187.297,90.579,0.0180524,127000,0.113682,6.99004e8,7.94641e7,7.03507e8
6.28319,195.582,93.365,0.0181226,122522,0.118706,6.71361e8,7.96944e7,6.76075e8
6.28319,203.866,96.127,0.0181935,117733,0.119658,6.42534e8,7.68844e7,6.47118e8
6.28319,212.151,98.936,0.0182638,113310,0.125533,6.15580e8,7.72757e7,6.20411e8
6.28319,220.434,101.709,0.0183314,108813,0.128697,5.88736e8,7.57683e7,5.93591e8
6.28319,228.720,104.496,0.0183888,104681,0.129575,5.64545e8,7.31507e7,5.69265e8
6.28319,237.003,107.270,0.0184597,100189,0.134730,5.37886e8,7.24692e7,5.42746e8
6.28319,245.288,110.044,0.0185144,96262.0,0.133935,5.15330e8,6.90205e7,5.19931e8
6.28319,253.572,112.790,0.0185703,92447.2,0.139443,4.93052e8,6.87527e7,4.97822e8
6.28319,261.857,115.563,0.0186251,88806.9,0.141301,4.72124e8,6.67117e7,4.76814e8
6.28319,270.140,118.378,0.0186751,85285.8,0.143964,4.52023e8,6.50751e7,4.56683e8
6.28319,278.425,121.123,0.0187240,81815.4,0.145897,4.32378e8,6.30828e7,4.36956e8
6.28319,286.709,123.834,0.0187700,78655.4,0.147872,4.14540e8,6.12987e7,4.19048e8
6.28319,294.994,126.531,0.0188163,75442.5,0.151520,3.96418e8,6.00654e7,4.00943e8
6.28319,304.848,129.841,0.0188667,71643.3,0.153787,3.75323e8,5.77198e7,3.79735e8
6.28319,313.092,130.175,0.0188944,69483.4,0.153292,3.63499e8,5.57216e7,3.67745e8
6.28319,321.376,130.279,0.0189121,68027.1,0.150192,3.55712e8,5.34249e7,3.59702e8

File: 50B_5_B.csv
Filename,50B_5_B
Instrument name,RSAG2
Operator,
rundate,5/29/2018
proceduresegments,Standard Oscillatory Temperature Ramp
[step]
Temperature Ramp - 1
Angular frequency,Step time,Temperature,Oscillation strain,Oscillation stress,Tan(delta),Storage modulus,Loss modulus,Complex modulus
rad/s,s,Â°C,%,Pa,,Pa,Pa,Pa
6.28319,11.8935,31.793,0.0163127,218699,0.0389912,1.33965e9,5.22345e7,1.34067e9
6.28319,20.8942,34.691,0.0163297,217567,0.0377912,1.33138e9,5.03146e7,1.33233e9
6.28319,29.1377,37.275,0.0163563,216211,0.0389767,1.32088e9,5.14836e7,1.32188e9
6.28319,37.4210,39.993,0.0163871,214638,0.0406342,1.30872e9,5.31789e7,1.30980e9
6.28319,45.7063,42.886,0.0164284,212409,0.0429272,1.29174e9,5.54510e7,1.29293e9
6.28319,53.9898,45.730,0.0164803,209607,0.0449928,1.27058e9,5.71671e7,1.27187e9
6.28319,69.3708,50.986,0.0165880,203809,0.0497763,1.22714e9,6.10823e7,1.22866e9
6.28319,77.6478,53.759,0.0166637,199821,0.0552492,1.19731e9,6.61506e7,1.19914e9
6.28319,85.9313,56.532,0.0167454,195264,0.0576479,1.16415e9,6.71106e7,1.16608e9
6.28319,94.2165,59.365,0.0168270,190909,0.0617945,1.13238e9,6.99751e7,1.13454e9
6.28319,102.500,62.133,0.0169197,185714,0.0666727,1.09518e9,7.30188e7,1.09761e9
6.28319,110.785,64.913,0.0170173,180140,0.0695224,1.05602e9,7.34170e7,1.05857e9
6.28319,125.370,69.826,0.0171774,170602,0.0748959,9.90400e8,7.41769e7,9.93173e8
6.28319,137.368,73.858,0.0173225,162546,0.0837207,9.35077e8,7.82853e7,9.38348e8
6.28319,145.632,76.617,0.0174119,157185,0.0869036,8.99356e8,7.81573e7,9.02746e8
6.28319,153.918,79.396,0.0175056,151906,0.0913782,8.64152e8,7.89646e7,8.67752e8
6.28319,162.201,82.213,0.0175926,146854,0.0949900,8.31004e8,7.89370e7,8.34744e8
6.28319,170.486,84.961,0.0176749,141979,0.0997781,7.99310e8,7.97536e7,8.03279e8
6.28319,178.770,87.724,0.0177524,137226,0.100919,7.69091e8,7.76159e7,7.72998e8
6.28319,187.055,90.477,0.0178306,132613,0.105912,7.39601e8,7.83325e7,7.43737e8
6.28319,195.340,93.309,0.0178993,128541,0.107441,7.14024e8,7.67152e7,7.18134e8
6.28319,203.624,96.096,0.0179634,124463,0.109915,6.88723e8,7.57008e7,6.92871e8
6.28319,211.909,98.860,0.0180279,120532,0.112462,6.64399e8,7.47194e7,6.68587e8
6.28319,220.192,101.632,0.0180922,116754,0.116886,6.40963e8,7.49194e7,6.45327e8
6.28319,228.478,104.400,0.0181463,113266,0.118459,6.19849e8,7.34265e7,6.24183e8
6.28319,236.761,107.156,0.0182022,109959,0.120930,5.99726e8,7.25250e7,6.04096e8
6.28319,245.046,109.942,0.0182517,106655,0.122206,5.80044e8,7.08849e7,5.84359e8
6.28319,253.330,112.717,0.0183044,103513,0.126451,5.61039e8,7.09441e7,5.65507e8
6.28319,261.615,115.443,0.0183502,100625,0.127281,5.43972e8,6.92371e7,5.48361e8
6.28319,269.898,118.224,0.0184013,97283.6,0.129406,5.24306e8,6.78482e7,5.28677e8
6.28319,278.184,120.968,0.0184499,94188.5,0.131921,5.06125e8,6.67685e7,5.10510e8
6.28319,286.467,123.786,0.0184990,91052.2,0.135376,4.87751e8,6.60298e7,4.92200e8
6.28319,294.753,126.520,0.0185518,87795.1,0.136715,4.68882e8,6.41030e7,4.73244e8
6.28319,303.036,129.284,0.0186049,84497.2,0.142511,4.49624e8,6.40762e7,4.54167e8
6.28319,311.321,130.105,0.0186507,81213.9,0.137592,4.31382e8,5.93546e7,4.35446e8
6.28319,319.605,130.225,0.0186755,79524.1,0.138632,4.21786e8,5.84732e7,4.25820e8

File: 50C_1_A.csv
Filename,50C_1_A
Instrument name,RSAG2
Operator,
rundate,5/28/2018
proceduresegments,Standard Oscillatory Temperature Ramp
[step]
Temperature Ramp - 1
Angular frequency,Step time,Temperature,Oscillation strain,Oscillation stress,Tan(delta),Storage modulus,Loss modulus,Complex modulus
rad/s,s,Â°C,%,Pa,,Pa,Pa,Pa
6.28319,8.02517,30.973,0.0166401,199005,0.0466691,1.19464e9,5.57526e7,1.19594e9
6.28319,16.3065,33.146,0.0166507,198417,0.0470390,1.19033e9,5.59919e7,1.19165e9
6.28319,24.5920,35.799,0.0166762,197084,0.0482673,1.18045e9,5.69773e7,1.18183e9
6.28319,32.8752,38.510,0.0167089,195304,0.0495150,1.16743e9,5.78054e7,1.16886e9
6.28319,41.1605,41.344,0.0167497,193166,0.0522868,1.15168e9,6.02174e7,1.15325e9
6.28319,49.4440,44.163,0.0168000,190497,0.0547105,1.13222e9,6.19441e7,1.13391e9
6.28319,57.7293,46.992,0.0168573,187514,0.0587635,1.11045e9,6.52538e7,1.11236e9
6.28319,66.0127,49.808,0.0169177,184038,0.0607848,1.08584e9,6.60025e7,1.08784e9
6.28319,74.2980,52.687,0.0169850,180512,0.0643972,1.06058e9,6.82981e7,1.06277e9
6.28319,87.3695,57.059,0.0171077,173832,0.0710412,1.01355e9,7.20038e7,1.01610e9
6.28319,95.6125,59.824,0.0171928,168938,0.0759298,9.79791e8,7.43953e7,9.82611e8
6.28319,103.896,62.610,0.0172845,163852,0.0797154,9.44973e8,7.53289e7,9.47971e8
6.28319,112.181,65.425,0.0173755,158702,0.0845643,9.10114e8,7.69631e7,9.13363e8
6.28319,120.464,68.196,0.0174682,153360,0.0886993,8.74506e8,7.75680e7,8.77939e8
6.28319,128.750,70.948,0.0175604,148112,0.0929146,8.39824e8,7.80319e7,8.43441e8
6.28319,137.033,73.711,0.0176538,142630,0.0980880,8.04069e8,7.88695e7,8.07928e8
6.28319,145.318,76.493,0.0177451,137466,0.102227,7.70653e8,7.87815e7,7.74669e8
6.28319,153.602,79.251,0.0178321,132324,0.107425,7.37809e8,7.92592e7,7.42054e8
6.28319,161.887,82.045,0.0179146,127471,0.111086,7.07200e8,7.85602e7,7.11550e8
6.28319,170.170,84.815,0.0179844,123041,0.113121,6.79822e8,7.69022e7,6.84158e8
6.28319,178.456,87.618,0.0180588,118607,0.115974,6.52412e8,7.56629e7,6.56785e8
6.28319,186.739,90.389,0.0181288,114379,0.120206,6.26416e8,7.52990e7,6.30925e8
6.28319,195.025,93.169,0.0181963,110286,0.124087,6.01475e8,7.46355e7,6.06088e8
6.28319,203.308,95.927,0.0182634,106165,0.127731,5.76615e8,7.36515e7,5.81300e8
6.28319,211.593,98.739,0.0183256,102281,0.131271,5.53383e8,7.26431e7,5.58131e8
6.28319,219.877,101.514,0.0183875,98437.0,0.133664,5.30628e8,7.09259e7,5.35347e8
6.28319,228.162,104.267,0.0184474,94656.6,0.137802,5.08312e8,7.00462e7,5.13115e8
6.28319,236.445,107.023,0.0185099,90703.4,0.140447,4.85263e8,6.81538e7,4.90026e8
6.28319,244.730,109.813,0.0185643,87222.0,0.142777,4.65120e8,6.64082e7,4.69837e8
6.28319,253.016,112.553,0.0186190,83674.9,0.146811,4.44640e8,6.52779e7,4.49406e8
6.28319,261.299,115.346,0.0186699,80310.5,0.146920,4.25591e8,6.25280e7,4.30159e8
6.28319,269.585,118.166,0.0187199,77136.0,0.151615,4.07398e8,6.17678e7,4.12054e8
6.28319,277.868,120.919,0.0187665,74014.0,0.152452,3.89890e8,5.94393e7,3.94394e8
6.28319,286.153,123.698,0.0188096,71147.7,0.155065,3.73786e8,5.79609e7,3.78253e8
6.28319,294.436,126.461,0.0188534,68278.0,0.156974,3.57770e8,5.61606e7,3.62151e8
6.28319,302.722,129.210,0.0188909,65743.9,0.158200,3.43744e8,5.43803e7,3.48019e8
6.28319,311.005,130.118,0.0189258,63268.8,0.159196,3.30142e8,5.25573e7,3.34299e8
6.28319,319.290,130.221,0.0189430,62001.9,0.154348,3.23477e8,4.99280e7,3.27307e8

File: 50C_4_B.csv
Filename,50C_4_B
Instrument name,RSAG2
Operator,
rundate,5/29/2018
proceduresegments,Standard Oscillatory Temperature Ramp
[step]
Temperature Ramp - 1
Angular frequency,Step time,Temperature,Oscillation strain,Oscillation stress,Tan(delta),Storage modulus,Loss modulus,Complex modulus
rad/s,s,Â°C,%,Pa,,Pa,Pa,Pa
6.28319,8.02517,31.296,0.0159669,270819,0.0417334,1.69465e9,7.07237e7,1.69613e9
6.28319,16.3065,33.292,0.0159757,270273,0.0424629,1.69025e9,7.17731e7,1.69178e9
6.28319,24.5920,35.818,0.0159959,268914,0.0415828,1.67970e9,6.98465e7,1.68115e9
6.28319,32.8752,38.448,0.0160280,266747,0.0425775,1.66275e9,7.07958e7,1.66426e9
6.28319,41.1605,41.199,0.0160684,264485,0.0443190,1.64439e9,7.28776e7,1.64600e9
6.28319,49.4438,44.038,0.0161159,261402,0.0450141,1.62038e9,7.29400e7,1.62202e9
6.28319,57.7293,46.940,0.0161716,258156,0.0479697,1.59452e9,7.64886e7,1.59635e9
6.28319,66.0125,49.766,0.0162407,254013,0.0508304,1.56203e9,7.93986e7,1.56405e9
6.28319,74.2978,52.601,0.0163200,249140,0.0529636,1.52446e9,8.07408e7,1.52660e9
6.28319,82.5812,55.400,0.0164010,244136,0.0574144,1.48609e9,8.53232e7,1.48854e9
6.28319,90.8665,58.180,0.0164956,238524,0.0616564,1.44325e9,8.89853e7,1.44599e9
6.28319,102.402,62.056,0.0166367,229649,0.0666960,1.37732e9,9.18614e7,1.38038e9
6.28319,110.647,64.824,0.0167475,222647,0.0729345,1.32591e9,9.67043e7,1.32943e9
6.28319,118.932,67.643,0.0168733,215027,0.0789080,1.27041e9,1.00246e8,1.27436e9
6.28319,127.215,70.419,0.0169872,207728,0.0834856,1.21861e9,1.01737e8,1.22285e9
6.28319,135.501,73.199,0.0171068,200185,0.0895213,1.16555e9,1.04342e8,1.17021e9
6.28319,143.784,76.001,0.0172148,193040,0.0913765,1.11671e9,1.02041e8,1.12136e9
6.28319,152.070,78.773,0.0173148,186495,0.0973859,1.07201e9,1.04399e8,1.07708e9
6.28319,160.353,81.530,0.0174137,179904,0.100724,1.02791e9,1.03536e8,1.03311e9
6.28319,168.638,84.346,0.0175033,173914,0.104605,9.88214e8,1.03372e8,9.93606e8
6.28319,176.922,87.088,0.0175810,168641,0.106671,9.53811e8,1.01744e8,9.59222e8
6.28319,185.207,89.826,0.0176488,164016,0.108283,9.23929e8,1.00046e8,9.29330e8
6.28319,193.490,92.588,0.0177279,158795,0.113409,8.90030e8,1.00937e8,8.95735e8
6.28319,201.776,95.362,0.0177828,154682,0.112450,8.64394e8,9.72014e7,8.69842e8
6.28319,210.059,98.098,0.0178485,150529,0.118633,8.37501e8,9.93557e7,8.43374e8
6.28319,218.344,100.861,0.0179027,146645,0.118557,8.13425e8,9.64375e7,8.19122e8
6.28319,226.628,103.586,0.0179609,142527,0.120382,7.87855e8,9.48437e7,7.93543e8
6.28319,234.913,106.389,0.0180173,138667,0.121730,7.63994e8,9.30013e7,7.69634e8
6.28319,243.198,109.161,0.0180696,134960,0.125033,7.41121e8,9.26647e7,7.46892e8
6.28319,251.482,111.987,0.0181255,131089,0.128207,7.17359e8,9.19702e7,7.23230e8
6.28319,259.767,114.747,0.0181816,127252,0.129253,6.94120e8,8.97172e7,6.99894e8
6.28319,268.050,117.506,0.0182337,123231,0.130628,6.70150e8,8.75407e7,6.75844e8
6.28319,276.336,120.250,0.0182980,118905,0.136012,6.43896e8,8.75774e7,6.49824e8
6.28319,284.621,123.026,0.0183525,114808,0.137319,6.19753e8,8.51041e7,6.25569e8
6.28319,292.904,125.793,0.0184140,110736,0.141406,5.95444e8,8.41991e7,6.01368e8
6.28319,301.190,128.579,0.0184703,106520,0.145044,5.70734e8,8.27817e7,5.76706e8
6.28319,309.473,130.373,0.0185307,102130,0.145279,5.45411e8,7.92364e7,5.51136e8
6.28319,317.758,130.266,0.0185524,100214,0.143748,5.34674e8,7.68584e7,5.40170e8

File: 50D_1_A.csv
Filename,50D_1_A
Instrument name,RSAG2
Operator,
rundate,5/28/2018
proceduresegments,Standard Oscillatory Temperature Ramp
[step]
Temperature Ramp - 1
Angular frequency,Step time,Temperature,Oscillation strain,Oscillation stress,Tan(delta),Storage modulus,Loss modulus,Complex modulus
rad/s,s,Â°C,%,Pa,,Pa,Pa,Pa
6.28319,8.02517,31.674,0.0171305,179285,0.0561735,1.04494e9,5.86979e7,1.04659e9
6.28319,16.3065,33.526,0.0171385,178778,0.0565707,1.04147e9,5.89167e7,1.04313e9
6.28319,24.5918,35.975,0.0171552,177774,0.0566004,1.03462e9,5.85596e7,1.03627e9
6.28319,32.8753,38.515,0.0171818,176228,0.0581359,1.02394e9,5.95274e7,1.02566e9
6.28319,41.1605,41.273,0.0172169,174271,0.0609332,1.01034e9,6.15632e7,1.01221e9
6.28319,49.4438,44.085,0.0172604,171839,0.0633685,9.93580e8,6.29617e7,9.95573e8
6.28319,57.7293,46.933,0.0173095,169090,0.0674614,9.74643e8,6.57508e7,9.76858e8
6.28319,66.0125,49.765,0.0173608,166116,0.0707668,9.54456e8,6.75438e7,9.56843e8
6.28319,74.2978,52.607,0.0174216,162653,0.0745125,9.31044e8,6.93744e7,9.33625e8
6.28319,82.5813,55.483,0.0174865,158843,0.0789164,9.05563e8,7.14638e7,9.08379e8
6.28319,90.8665,58.256,0.0175551,154903,0.0829496,8.79361e8,7.29427e7,8.82382e8
6.28319,99.1498,61.026,0.0176261,150653,0.0884264,8.51392e8,7.52856e7,8.54715e8
6.28319,107.435,63.801,0.0176998,146301,0.0925098,8.23055e8,7.61406e7,8.26569e8
6.28319,115.719,66.591,0.0177754,141727,0.0976453,7.93547e8,7.74861e7,7.97321e8
6.28319,126.370,70.153,0.0178706,135618,0.101721,7.54990e8,7.67985e7,7.58885e8
6.28319,139.354,74.489,0.0179862,128444,0.108773,7.09935e8,7.72217e7,7.14123e8
6.28319,147.610,77.278,0.0180585,123979,0.115113,6.82037e8,7.85117e7,6.86541e8
6.28319,155.894,80.125,0.0181300,119443,0.116870,6.54363e8,7.64752e7,6.58817e8
6.28319,164.179,82.906,0.0181952,115190,0.120180,6.28558e8,7.55403e7,6.33080e8
6.28319,172.462,85.701,0.0182619,110984,0.124363,6.03088e8,7.50017e7,6.07734e8
6.28319,180.747,88.464,0.0183181,107208,0.125562,5.80696e8,7.29135e7,5.85256e8
6.28319,189.031,91.212,0.0183749,103497,0.130186,5.58541e8,7.27142e7,5.63254e8
6.28319,197.316,94.010,0.0184317,99792.4,0.131248,5.36813e8,7.04554e7,5.41417e8
6.28319,205.599,96.744,0.0184820,96457.5,0.134382,5.17251e8,6.95093e7,5.21901e8
6.28319,213.885,99.503,0.0185365,92865.8,0.137819,4.96298e8,6.83994e7,5.00989e8
6.28319,222.168,102.211,0.0185836,89683.0,0.139412,4.77969e8,6.66344e7,4.82591e8
6.28319,230.453,104.969,0.0186338,86361.2,0.141994,4.58863e8,6.51559e7,4.63466e8
6.28319,238.737,107.720,0.0186804,83168.0,0.143181,4.40720e8,6.31029e7,4.45215e8
6.28319,247.022,110.496,0.0187270,80051.4,0.146790,4.22932e8,6.20821e7,4.27465e8
6.28319,255.305,113.272,0.0187709,76997.2,0.147891,4.05781e8,6.00112e7,4.10195e8
6.28319,263.591,116.105,0.0188116,74078.3,0.150427,3.89409e8,5.85777e7,3.93790e8
6.28319,271.874,118.867,0.0188511,71350.3,0.151175,3.74243e8,5.65763e7,3.78495e8
6.28319,280.159,121.602,0.0188890,68752.4,0.153841,3.59749e8,5.53442e7,3.63981e8
6.28319,288.443,124.381,0.0189285,66061.5,0.157031,3.44780e8,5.41412e7,3.49005e8
6.28319,296.728,127.143,0.0189633,63512.0,0.157744,3.30830e8,5.21864e7,3.34921e8
6.28319,305.011,129.900,0.0189996,61098.7,0.161040,3.17488e8,5.11283e7,3.21578e8
6.28319,313.297,130.123,0.0190254,59097.7,0.159159,3.06764e8,4.88242e7,3.10625e8
6.28319,321.580,130.153,0.0190413,57814.8,0.157010,2.99954e8,4.70957e7,3.03629e8