Folder: upr_work/DATA-PRACTICUM1/exercises/data/multi_csv (part 3)

File: 60A_1_A.csv
Filename,60A_1_A
Instrument name,RSAG2
Operator,
rundate,5/29/2018
proceduresegments,Standard Oscillatory Temperature Ramp
[step]
Temperature Ramp - 1
Angular frequency,Step time,Temperature,Oscillation strain,Oscillation stress,Tan(delta),Storage modulus,Loss modulus,Complex modulus
rad/s,s,Â°C,%,Pa,,Pa,Pa,Pa
6.28319,8.02517,31.061,0.0170499,201120,0.0535496,1.17791e9,6.30765e7,1.17960e9
6.28319,16.3085,33.214,0.0170598,200463,0.0536202,1.17338e9,6.29166e7,1.17506e9
6.28319,24.5918,35.790,0.0170817,198924,0.0535739,1.16288e9,6.22997e7,1.16454e9
6.28319,32.8772,38.463,0.0171147,196964,0.0557403,1.14906e9,6.40492e7,1.15085e9
6.28319,41.1605,41.271,0.0171496,194700,0.0574865,1.13343e9,6.51570e7,1.13530e9
6.28319,49.4458,44.091,0.0171976,191832,0.0608648,1.11340e9,6.77666e7,1.11546e9
6.28319,57.7293,46.969,0.0172510,188417,0.0635750,1.09001e9,6.92974e7,1.09221e9
6.28319,66.0145,49.796,0.0173115,184358,0.0659501,1.06264e9,7.00811e7,1.06495e9
6.28319,74.2978,52.588,0.0173788,180134,0.0696370,1.03401e9,7.20055e7,1.03652e9
6.28319,82.5833,55.391,0.0174481,175606,0.0740062,1.00370e9,7.42802e7,1.00645e9
6.28319,90.8665,58.208,0.0175252,170717,0.0784395,9.71137e8,7.61755e7,9.74120e8
6.28319,99.1518,60.939,0.0176074,165271,0.0821424,9.35493e8,7.68437e7,9.38644e8
6.28319,107.435,63.784,0.0176994,159448,0.0879053,8.97405e8,7.88867e7,9.00865e8
6.28319,115.721,66.582,0.0177878,153665,0.0931904,8.60152e8,8.01579e7,8.63879e8
6.28319,124.004,69.377,0.0178783,147348,0.0980466,8.20238e8,8.04216e7,8.24172e8
6.28319,132.289,72.181,0.0179626,141783,0.101972,7.85253e8,8.00742e7,7.89325e8
6.28319,140.572,74.946,0.0180477,136184,0.109854,7.50067e8,8.23977e7,7.54579e8
6.28319,148.858,77.732,0.0181242,131015,0.112541,7.18339e8,8.08426e7,7.22874e8
6.28319,157.141,80.563,0.0181945,125977,0.116689,6.87720e8,8.02496e7,6.92387e8
6.28319,165.426,83.329,0.0182637,121149,0.121119,6.58520e8,7.97591e7,6.63332e8
6.28319,173.710,86.112,0.0183240,116877,0.123536,6.33021e8,7.82007e7,6.37833e8
6.28319,181.995,88.853,0.0183865,112400,0.127490,6.06409e8,7.73110e7,6.11317e8
6.28319,190.279,91.593,0.0184463,108333,0.131981,5.82239e8,7.68447e7,5.87289e8
6.28319,198.564,94.412,0.0185068,103973,0.135149,5.56748e8,7.52440e7,5.61810e8
6.28319,206.847,97.199,0.0185610,100087,0.137997,5.34170e8,7.37137e7,5.39232e8
6.28319,215.132,99.970,0.0186121,96234.3,0.142613,5.11872e8,7.29996e7,5.17051e8
6.28319,223.418,102.750,0.0186613,92674.8,0.143568,4.91575e8,7.05744e7,4.96615e8
6.28319,231.701,105.503,0.0187043,89397.7,0.145098,4.73000e8,6.86313e7,4.77954e8
6.28319,239.986,108.288,0.0187479,86178.5,0.149080,4.54646e8,6.77785e7,4.59670e8
6.28319,248.270,111.020,0.0187915,83093.9,0.151575,4.37196e8,6.62679e7,4.42190e8
6.28319,256.555,113.739,0.0188319,80188.8,0.154007,4.20853e8,6.48142e7,4.25814e8
6.28319,264.839,116.478,0.0188698,77381.0,0.155976,4.05180e8,6.31982e7,4.10079e8
6.28319,273.124,119.211,0.0189043,74655.1,0.159196,3.90000e8,6.20865e7,3.94911e8
6.28319,281.407,121.961,0.0189417,71883.3,0.163223,3.74542e8,6.11340e7,3.79498e8
6.28319,289.693,124.747,0.0189768,69245.2,0.164744,3.60040e8,5.93144e7,3.64893e8
6.28319,297.976,127.508,0.0190116,66410.3,0.166165,3.44590e8,5.72589e7,3.49315e8
6.28319,306.261,130.256,0.0190425,64085.6,0.167402,3.31922e8,5.55643e7,3.36541e8
6.28319,314.545,130.196,0.0190662,62155.8,0.169450,3.21418e8,5.44643e7,3.26000e8
6.28319,322.830,130.182,0.0190750,61300.7,0.165912,3.17033e8,5.25995e7,3.21367e8

File: 60A_1_B.csv
Filename,60A_1_B
Instrument name,RSAG2
Operator,
rundate,5/31/2018
proceduresegments,Standard Oscillatory Temperature Ramp
[step]
Temperature Ramp - 1
Angular frequency,Step time,Temperature,Oscillation strain,Oscillation stress,Tan(delta),Storage modulus,Loss modulus,Complex modulus
rad/s,s,Â°C,%,Pa,,Pa,Pa,Pa
6.28319,8.02500,27.694,0.0189754,367058,0.0384953,1.93296e9,7.44100e7,1.93439e9
6.28319,16.3083,30.311,0.0189873,365396,0.0396805,1.92291e9,7.63018e7,1.92442e9
6.28319,24.5937,33.064,0.0190047,362889,0.0412656,1.90784e9,7.87284e7,1.90947e9
6.28319,32.8770,35.921,0.0190264,359347,0.0421213,1.88700e9,7.94827e7,1.88867e9
6.28319,41.1623,38.696,0.0190521,355155,0.0449396,1.86224e9,8.36884e7,1.86412e9
6.28319,52.9048,42.591,0.0190968,348996,0.0488729,1.82533e9,8.92092e7,1.82751e9
6.28319,61.1488,45.322,0.0191273,343414,0.0517836,1.79301e9,9.28485e7,1.79541e9
6.28319,69.4322,48.066,0.0191676,337182,0.0549598,1.75647e9,9.65353e7,1.75912e9
6.28319,77.7177,50.817,0.0192072,330199,0.0583676,1.71622e9,1.00172e8,1.71914e9
6.28319,86.0008,53.549,0.0192514,322057,0.0620955,1.66968e9,1.03680e8,1.67290e9
6.28319,94.2862,56.302,0.0192948,313943,0.0655839,1.62360e9,1.06482e8,1.62709e9
6.28319,102.572,59.065,0.0193359,305041,0.0694754,1.57380e9,1.09340e8,1.57759e9
6.28319,110.855,61.819,0.0193799,296196,0.0728483,1.52433e9,1.11045e8,1.52837e9
6.28319,119.140,64.656,0.0194274,286572,0.0792280,1.47048e9,1.16503e8,1.47509e9
6.28319,127.424,67.424,0.0194719,276171,0.0828424,1.41347e9,1.17095e8,1.41831e9
6.28319,135.709,70.217,0.0195130,266081,0.0877849,1.35838e9,1.19246e8,1.36361e9
6.28319,143.992,72.961,0.0195563,256094,0.0933415,1.30386e9,1.21704e8,1.30952e9
6.28319,152.278,75.738,0.0195971,246058,0.0979796,1.24960e9,1.22435e8,1.25558e9
6.28319,160.561,78.537,0.0196319,236347,0.103825,1.19745e9,1.24325e8,1.20389e9
6.28319,168.846,81.311,0.0196631,227155,0.106892,1.14869e9,1.22786e8,1.15523e9
6.28319,177.861,84.336,0.0196909,217963,0.111405,1.10012e9,1.22558e8,1.10692e9
6.28319,186.129,87.108,0.0197116,210004,0.115561,1.05834e9,1.22303e8,1.06538e9
6.28319,194.414,89.878,0.0197340,202569,0.118379,1.01938e9,1.20673e8,1.02650e9
6.28319,202.698,92.719,0.0197479,195116,0.120109,9.80984e8,1.17825e8,9.88035e8
6.28319,210.983,95.482,0.0197623,188349,0.122835,9.45966e8,1.16198e8,9.53075e8
6.28319,219.266,98.231,0.0197769,182170,0.125307,9.13977e8,1.14528e8,9.21124e8
6.28319,227.552,100.997,0.0197921,176116,0.130516,8.82350e8,1.15160e8,8.89833e8
6.28319,235.835,103.732,0.0198020,170473,0.131111,8.53580e8,1.11913e8,8.60885e8
6.28319,244.120,106.473,0.0198138,165248,0.135624,8.26436e8,1.12084e8,8.34002e8
6.28319,252.404,109.315,0.0198281,160247,0.139859,8.00393e8,1.11942e8,8.08183e8
6.28319,260.689,112.046,0.0198402,155574,0.144257,7.76102e8,1.11958e8,7.84136e8
6.28319,268.972,114.834,0.0198466,150692,0.146042,7.51310e8,1.09723e8,7.59280e8
6.28319,277.258,117.597,0.0198553,146343,0.149474,7.28948e8,1.08959e8,7.37047e8
6.28319,285.541,120.356,0.0198642,141486,0.154223,7.03943e8,1.08564e8,7.12265e8
6.28319,293.826,123.094,0.0198731,136207,0.155754,6.77219e8,1.05479e8,6.85384e8
6.28319,302.110,125.930,0.0198782,130873,0.160199,6.50087e8,1.04143e8,6.58376e8
6.28319,310.395,128.693,0.0198859,125575,0.163933,6.23162e8,1.02157e8,6.31479e8
6.28319,318.678,130.342,0.0198915,120492,0.166862,5.97485e8,9.96977e7,6.05746e8
6.28319,326.964,130.254,0.0198873,116998,0.164766,5.80476e8,9.56428e7,5.88303e8

File: 60B_1_A.csv
Filename,60B_1_A
Instrument name,RSAG2
Operator,
rundate,5/29/2018
proceduresegments,Standard Oscillatory Temperature Ramp
[step]
Temperature Ramp - 1
Angular frequency,Step time,Temperature,Oscillation strain,Oscillation stress,Tan(delta),Storage modulus,Loss modulus,Complex modulus
rad/s,s,Â°C,%,Pa,,Pa,Pa,Pa
6.28319,8.02517,30.040,0.0160718,207047,0.0520934,1.28652e9,6.70192e7,1.28826e9
6.28319,16.3065,32.992,0.0161049,205498,0.0518300,1.27429e9,6.60462e7,1.27600e9
6.28319,24.5920,35.909,0.0161473,203396,0.0536487,1.25782e9,6.74805e7,1.25963e9
6.28319,32.8752,38.783,0.0162005,200836,0.0548194,1.23783e9,6.78572e7,1.23969e9
6.28319,41.1605,41.676,0.0162585,198114,0.0577281,1.21650e9,7.02261e7,1.21852e9
6.28319,49.4438,44.476,0.0163265,194969,0.0609324,1.19198e9,7.26300e7,1.19419e9
6.28319,67.8698,50.608,0.0164868,186889,0.0685097,1.13092e9,7.74788e7,1.13357e9
6.28319,76.1138,53.380,0.0165751,182620,0.0734551,1.09881e9,8.07131e7,1.10177e9
6.28319,84.3992,56.157,0.0166744,177915,0.0772214,1.06382e9,8.21500e7,1.06699e9
6.28319,92.6827,58.903,0.0167721,173176,0.0826297,1.02902e9,8.50275e7,1.03253e9
6.28319,105.886,63.366,0.0169501,164364,0.0901516,9.65777e8,8.70664e7,9.69694e8
6.28319,114.147,66.149,0.0170599,158935,0.0972352,9.27253e8,9.01617e7,9.31626e8
6.28319,122.432,68.915,0.0171740,153232,0.101751,8.87649e8,9.03193e7,8.92232e8
6.28319,130.718,71.686,0.0172876,147485,0.106016,8.48370e8,8.99406e7,8.53124e8
6.28319,139.001,74.452,0.0173946,141945,0.110587,8.11086e8,8.96955e7,8.16030e8
6.28319,147.286,77.244,0.0174898,137019,0.113978,7.78382e8,8.87182e7,7.83421e8
6.28319,155.570,79.984,0.0175793,132243,0.118584,7.47027e8,8.85852e7,7.52261e8
6.28319,163.855,82.717,0.0176705,127571,0.121005,7.16715e8,8.67258e7,7.21943e8
6.28319,172.139,85.470,0.0177505,123258,0.125589,6.88979e8,8.65285e7,6.94392e8
6.28319,180.424,88.271,0.0178306,118979,0.127516,6.61915e8,8.44046e7,6.67275e8
6.28319,194.868,93.068,0.0179632,111803,0.133793,6.16905e8,8.25377e7,6.22402e8
6.28319,203.112,95.874,0.0180312,108021,0.136641,5.93563e8,8.11054e7,5.99079e8
6.28319,211.395,98.625,0.0181031,104074,0.139034,5.69420e8,7.91686e7,5.74897e8
6.28319,219.681,101.419,0.0181709,100426,0.142944,5.47116e8,7.82067e7,5.52677e8
6.28319,227.964,104.173,0.0182366,96617.4,0.144652,5.24342e8,7.58472e7,5.29800e8
6.28319,236.249,106.930,0.0182993,93180.3,0.147504,5.03751e8,7.43054e7,5.09202e8
6.28319,244.533,109.686,0.0183623,89645.4,0.149830,4.82815e8,7.23401e7,4.88205e8
6.28319,252.818,112.511,0.0184229,86103.9,0.151012,4.62136e8,6.97880e7,4.67376e8
6.28319,261.101,115.302,0.0184822,82781.0,0.155353,4.42587e8,6.87570e7,4.47896e8
6.28319,269.387,118.064,0.0185416,79419.0,0.157838,4.23091e8,6.67797e7,4.28329e8
6.28319,277.670,120.813,0.0185939,76349.5,0.160332,4.05438e8,6.50049e7,4.10616e8
6.28319,285.955,123.575,0.0186514,73091.7,0.162629,3.86802e8,6.29053e7,3.91884e8
6.28319,294.239,126.369,0.0186997,70263.9,0.165608,3.70699e8,6.13907e7,3.75748e8
6.28319,302.524,129.155,0.0187512,67261.1,0.169162,3.53679e8,5.98289e7,3.58703e8
6.28319,310.807,130.119,0.0187985,64530.9,0.171631,3.38329e8,5.80676e7,3.43276e8
6.28319,319.093,130.262,0.0188182,63003.4,0.167510,3.30199e8,5.53119e7,3.34800e8

File: 60B_1_B.csv
Filename,60B_1_B
Instrument name,RSAG2
Operator,
rundate,5/31/2018
proceduresegments,Standard Oscillatory Temperature Ramp
[step]
Temperature Ramp - 1
Angular frequency,Step time,Temperature,Oscillation strain,Oscillation stress,Tan(delta),Storage modulus,Loss modulus,Complex modulus
rad/s,s,Â°C,%,Pa,,Pa,Pa,Pa
6.28319,8.02500,28.976,0.0157822,313305,0.0410624,1.98351e9,8.14478e7,1.98518e9
6.28319,16.3083,30.702,0.0157892,312681,0.0412193,1.97866e9,8.15591e7,1.98034e9
6.28319,24.5917,33.025,0.0158040,311662,0.0414422,1.97035e9,8.16558e7,1.97205e9
6.28319,39.8985,37.733,0.0158621,307303,0.0443990,1.93544e9,8.59315e7,1.93734e9
6.28319,49.8958,41.054,0.0159178,303570,0.0467145,1.90503e9,8.89923e7,1.90710e9
6.28319,58.1670,43.963,0.0159738,299752,0.0487706,1.87430e9,9.14106e7,1.87653e9
6.28319,66.4505,46.817,0.0160408,295637,0.0529288,1.84046e9,9.74132e7,1.84303e9
6.28319,74.7360,49.634,0.0161077,290932,0.0550785,1.80344e9,9.93304e7,1.80617e9
6.28319,83.0192,52.409,0.0161842,285972,0.0588003,1.76393e9,1.03720e8,1.76698e9
6.28319,91.3045,55.183,0.0162716,280208,0.0628637,1.71868e9,1.08043e8,1.72207e9
6.28319,103.856,59.389,0.0164115,270684,0.0698284,1.64535e9,1.14892e8,1.64936e9
6.28319,112.851,62.410,0.0165254,262876,0.0743707,1.58636e9,1.17979e8,1.59074e9
6.28319,121.104,65.190,0.0166274,255710,0.0788965,1.53312e9,1.20957e8,1.53788e9
6.28319,129.388,68.018,0.0167451,247949,0.0845606,1.47546e9,1.24766e8,1.48072e9
6.28319,137.673,70.803,0.0168569,239941,0.0885025,1.41786e9,1.25484e8,1.42340e9
6.28319,145.956,73.582,0.0169767,231331,0.0927988,1.35681e9,1.25910e8,1.36264e9
6.28319,154.242,76.351,0.0170830,223973,0.0981453,1.30482e9,1.28062e8,1.31109e9
6.28319,162.525,79.147,0.0171940,216367,0.106070,1.25137e9,1.32733e8,1.25839e9
6.28319,175.876,83.608,0.0173393,205163,0.107939,1.17639e9,1.26978e8,1.18322e9
6.28319,184.143,86.388,0.0174346,198576,0.114622,1.13157e9,1.29702e8,1.13898e9
6.28319,200.852,91.989,0.0175994,186182,0.120294,1.05031e9,1.26347e8,1.05789e9
6.28319,209.898,95.066,0.0176799,180064,0.123604,1.01077e9,1.24936e8,1.01847e9
6.28319,218.175,97.834,0.0177504,175026,0.128578,9.77990e8,1.25748e8,9.86041e8
6.28319,226.460,100.625,0.0178170,170067,0.132769,9.46219e8,1.25628e8,9.54522e8
6.28319,234.743,103.355,0.0178804,165370,0.135096,9.16542e8,1.23821e8,9.24868e8
6.28319,243.029,106.188,0.0179460,160260,0.138474,8.84571e8,1.22491e8,8.93012e8
6.28319,251.312,108.943,0.0180119,155400,0.141251,8.54280e8,1.20668e8,8.62760e8
6.28319,259.597,111.726,0.0180740,150597,0.145435,8.24549e8,1.19918e8,8.33223e8
6.28319,267.881,114.494,0.0181352,145939,0.148483,7.96001e8,1.18192e8,8.04728e8
6.28319,276.166,117.252,0.0181956,140962,0.150761,7.66048e8,1.15490e8,7.74705e8
6.28319,284.449,120.046,0.0182680,135669,0.156696,7.33706e8,1.14969e8,7.42659e8
6.28319,292.735,122.780,0.0183257,131054,0.158989,7.06268e8,1.12289e8,7.15138e8
6.28319,301.018,125.541,0.0183896,125913,0.162613,6.75819e8,1.09897e8,6.84696e8
6.28319,309.303,128.265,0.0184492,121085,0.164414,6.47622e8,1.06478e8,6.56317e8
6.28319,317.587,130.458,0.0185172,116021,0.171852,6.17504e8,1.06119e8,6.26556e8
6.28319,325.872,130.255,0.0185565,112525,0.170487,5.97766e8,1.01911e8,6.06391e8

File: 60C_1_A.csv
Filename,60C_1_A
Instrument name,RSAG2
Operator,
rundate,5/30/2018
proceduresegments,Standard Oscillatory Temperature Ramp
[step]
Temperature Ramp - 1
Angular frequency,Step time,Temperature,Oscillation strain,Oscillation stress,Tan(delta),Storage modulus,Loss modulus,Complex modulus
rad/s,s,Â°C,%,Pa,,Pa,Pa,Pa
6.28319,8.02517,30.990,0.0155656,213438,0.0466782,1.36972e9,6.39361e7,1.37121e9
6.28319,16.3065,33.278,0.0155782,212899,0.0472957,1.36512e9,6.45643e7,1.36665e9
6.28319,24.5918,35.777,0.0156052,211625,0.0475782,1.35459e9,6.44490e7,1.35612e9
6.28319,32.8753,38.492,0.0156456,209987,0.0491742,1.34053e9,6.59193e7,1.34215e9
6.28319,41.1607,41.274,0.0157021,207591,0.0518099,1.32029e9,6.84043e7,1.32206e9
6.28319,49.4438,44.127,0.0157658,204900,0.0541274,1.29774e9,7.02434e7,1.29964e9
6.28319,57.7278,46.983,0.0158410,201729,0.0580617,1.27132e9,7.38151e7,1.27346e9
6.28319,66.0127,49.838,0.0159267,198005,0.0606945,1.24095e9,7.53187e7,1.24323e9
6.28319,74.2978,52.650,0.0160221,193928,0.0648040,1.20785e9,7.82732e7,1.21038e9
6.28319,82.5813,55.438,0.0161323,189214,0.0709159,1.16995e9,8.29679e7,1.17289e9
6.28319,99.8792,61.229,0.0163612,178834,0.0803631,1.08952e9,8.75575e7,1.09304e9
6.28319,108.125,64.023,0.0164871,173333,0.0873278,1.04734e9,9.14618e7,1.05133e9
6.28319,116.411,66.795,0.0166117,167861,0.0924635,1.00621e9,9.30376e7,1.01050e9
6.28319,124.694,69.544,0.0167439,161954,0.0986550,9.62568e8,9.49621e7,9.67241e8
6.28319,138.890,74.355,0.0169477,152374,0.104811,8.94184e8,9.37201e7,8.99082e8
6.28319,148.867,77.657,0.0170851,146044,0.111004,8.49584e8,9.43069e7,8.54802e8
6.28319,157.145,80.477,0.0171981,140976,0.118533,8.14021e8,9.64886e7,8.19719e8
6.28319,165.431,83.304,0.0172972,136177,0.119974,7.81669e8,9.37798e7,7.87275e8
6.28319,173.714,86.072,0.0173886,131784,0.124097,7.52108e8,9.33345e7,7.57878e8
6.28319,181.999,88.837,0.0174744,127625,0.127287,7.24511e8,9.22208e7,7.30356e8
6.28319,190.283,91.604,0.0175641,123378,0.130503,6.96539e8,9.09001e7,7.02445e8
6.28319,198.568,94.376,0.0176519,119064,0.135586,6.68393e8,9.06248e7,6.74508e8
6.28319,206.851,97.151,0.0177361,115026,0.137729,6.42474e8,8.84872e7,6.48539e8
6.28319,215.137,99.911,0.0178194,110946,0.141720,6.16453e8,8.73639e7,6.22612e8
6.28319,223.422,102.669,0.0178965,107042,0.145810,5.91859e8,8.62987e7,5.98117e8
6.28319,231.705,105.441,0.0179688,103328,0.146160,5.68994e8,8.31643e7,5.75040e8
6.28319,239.991,108.270,0.0180458,99556.8,0.151729,5.45446e8,8.27597e7,5.51688e8
6.28319,254.877,113.200,0.0181700,93121.5,0.155581,5.06409e8,7.87876e7,5.12502e8
6.28319,263.137,115.999,0.0182383,89692.3,0.158821,4.85692e8,7.71381e7,4.91779e8
6.28319,271.422,118.734,0.0183053,86197.5,0.162332,4.64805e8,7.54529e7,4.70889e8
6.28319,279.706,121.540,0.0183635,83122.0,0.163844,4.46692e8,7.31877e7,4.52648e8
6.28319,287.991,124.306,0.0184258,79894.5,0.167282,4.27658e8,7.15394e7,4.33601e8
6.28319,296.835,127.255,0.0184911,76449.6,0.169146,4.07649e8,6.89524e7,4.13440e8
6.28319,305.120,129.997,0.0185496,73293.1,0.172007,3.89400e8,6.69795e7,3.95119e8
6.28319,313.405,130.186,0.0185914,70949.4,0.170920,3.76170e8,6.42951e7,3.81625e8
6.28319,321.688,130.220,0.0186088,69659.2,0.168255,3.69145e8,6.21104e7,3.74334e8

File: 60C_4_B.csv
Filename,60C_4_B
Instrument name,RSAG2
Operator,
rundate,5/31/2018
proceduresegments,Standard Oscillatory Temperature Ramp
[step]
Temperature Ramp - 1
Angular frequency,Step time,Temperature,Oscillation strain,Oscillation stress,Tan(delta),Storage modulus,Loss modulus,Complex modulus
rad/s,s,Â°C,%,Pa,,Pa,Pa,Pa
6.28319,8.02500,28.970,0.0166536,249405,0.0415914,1.49631e9,6.22338e7,1.49761e9
6.28319,16.3083,30.766,0.0166602,248815,0.0404569,1.49225e9,6.03718e7,1.49347e9
6.28319,24.5918,32.996,0.0166745,247730,0.0413595,1.48441e9,6.13946e7,1.48568e9
6.28319,32.8772,35.514,0.0166978,246233,0.0423344,1.47333e9,6.23724e7,1.47465e9
6.28319,41.1625,38.119,0.0167254,244290,0.0437986,1.45919e9,6.39106e7,1.46059e9
6.28319,49.4458,40.877,0.0167621,241728,0.0451564,1.44065e9,6.50544e7,1.44212e9
6.28319,57.7312,43.790,0.0168082,238622,0.0463711,1.41816e9,6.57614e7,1.41968e9
6.28319,66.0145,46.609,0.0168625,234920,0.0501478,1.39140e9,6.97758e7,1.39315e9
6.28319,74.2998,49.440,0.0169222,230761,0.0532639,1.36173e9,7.25311e7,1.36366e9
6.28319,82.5832,52.233,0.0169899,226184,0.0574609,1.32910e9,7.63712e7,1.33129e9
6.28319,90.8687,55.006,0.0170660,220942,0.0597765,1.29233e9,7.72508e7,1.29464e9
6.28319,99.1518,57.834,0.0171451,215566,0.0658362,1.25459e9,8.25973e7,1.25731e9
6.28319,107.437,60.601,0.0172341,209155,0.0683495,1.21079e9,8.27566e7,1.21361e9
6.28319,115.720,63.365,0.0173204,203137,0.0739750,1.16962e9,8.65227e7,1.17282e9
6.28319,124.006,66.173,0.0174125,196801,0.0802754,1.12660e9,9.04383e7,1.13022e9
6.28319,132.289,68.943,0.0175060,190188,0.0846541,1.08254e9,9.16415e7,1.08641e9
6.28319,140.574,71.714,0.0175982,183624,0.0909465,1.03914e9,9.45060e7,1.04343e9
6.28319,148.858,74.556,0.0176935,176789,0.0949512,9.94703e8,9.44483e7,9.99177e8
6.28319,159.904,78.246,0.0178102,168018,0.102237,9.38489e8,9.59485e7,9.43381e8
6.28319,168.180,81.053,0.0178900,162333,0.106869,9.02260e8,9.64235e7,9.07397e8
6.28319,176.466,83.844,0.0179665,156540,0.110239,8.66044e8,9.54716e7,8.71290e8
6.28319,184.749,86.573,0.0180351,151194,0.111920,8.33133e8,9.32443e7,8.38335e8
6.28319,198.866,91.317,0.0181447,142732,0.117440,7.81261e8,9.17510e7,7.86631e8
6.28319,207.131,94.088,0.0182086,138023,0.122808,7.52358e8,9.23959e7,7.58010e8
6.28319,215.417,96.861,0.0182662,133554,0.126830,7.25342e8,9.19949e7,7.31153e8
6.28319,223.700,99.599,0.0183176,129340,0.126552,7.00511e8,8.86510e7,7.06098e8
6.28319,232.892,102.668,0.0183739,124984,0.131924,6.74386e8,8.89674e7,6.80229e8
6.28319,241.902,105.749,0.0184273,120549,0.133230,6.48455e8,8.63935e7,6.54185e8
6.28319,251.892,109.030,0.0184881,115771,0.136063,6.20478e8,8.44243e7,6.26195e8
6.28319,261.897,112.388,0.0185413,111541,0.138602,5.95884e8,8.25906e7,6.01581e8
6.28319,270.172,115.237,0.0185861,107916,0.142806,5.74792e8,8.20838e7,5.80624e8
6.28319,278.456,117.996,0.0186335,104163,0.145039,5.53223e8,8.02388e7,5.59012e8
6.28319,286.896,120.791,0.0186751,100980,0.148974,5.34818e8,7.96742e7,5.40720e8
6.28319,295.893,123.795,0.0187234,97153.3,0.151975,5.12998e8,7.79627e7,5.18888e8
6.28319,304.176,126.518,0.0187626,93914.8,0.156474,4.94525e8,7.73804e7,5.00542e8
6.28319,313.896,129.749,0.0188142,89607.6,0.158831,4.70380e8,7.47111e7,4.76277e8
6.28319,323.898,130.204,0.0188539,86250.5,0.160974,4.51653e8,7.27046e7,4.57467e8
6.28319,332.142,130.216,0.0188730,84403.0,0.158314,4.41714e8,6.99296e7,4.47215e8

File: 60D_1_A.csv
Filename,60D_1_A
Instrument name,RSAG2
Operator,
rundate,5/30/2018
proceduresegments,Standard Oscillatory Temperature Ramp
[step]
Temperature Ramp - 1
Angular frequency,Step time,Temperature,Oscillation strain,Oscillation stress,Tan(delta),Storage modulus,Loss modulus,Complex modulus
rad/s,s,Â°C,%,Pa,,Pa,Pa,Pa
6.28319,8.02517,31.255,0.0168754,216554,0.0509416,1.28159e9,6.52863e7,1.28325e9
6.28319,16.3085,33.324,0.0168859,215815,0.0510623,1.27641e9,6.51766e7,1.27808e9
6.28319,24.5918,35.833,0.0169110,214177,0.0519597,1.26479e9,6.57180e7,1.26650e9
6.28319,32.8773,38.491,0.0169476,211977,0.0541423,1.24895e9,6.76208e7,1.25078e9
6.28319,41.1605,41.263,0.0169914,209110,0.0563171,1.22873e9,6.91986e7,1.23068e9
6.28319,49.4458,44.090,0.0170483,205749,0.0597747,1.20471e9,7.20111e7,1.20686e9
6.28319,57.7293,46.983,0.0171117,201635,0.0634180,1.17598e9,7.45783e7,1.17834e9
6.28319,66.0145,49.804,0.0171804,197213,0.0681639,1.14523e9,7.80636e7,1.14789e9
6.28319,74.2978,52.618,0.0172607,192201,0.0725524,1.11060e9,8.05766e7,1.11352e9
6.28319,85.4005,56.353,0.0173752,184909,0.0797933,1.06084e9,8.46480e7,1.06421e9
6.28319,93.6725,59.136,0.0174644,179018,0.0856795,1.02130e9,8.75048e7,1.02505e9
6.28319,101.956,61.901,0.0175522,173093,0.0900260,9.82191e8,8.84227e7,9.86164e8
6.28319,110.241,64.737,0.0176465,166943,0.0958515,9.41726e8,9.02659e7,9.46042e8
6.28319,118.524,67.507,0.0177453,160329,0.102145,8.98826e8,9.18107e7,9.03503e8
6.28319,126.810,70.279,0.0178348,154309,0.106806,8.60320e8,9.18871e7,8.65213e8
6.28319,135.093,73.094,0.0179229,148094,0.111339,8.21209e8,9.14326e7,8.26283e8
6.28319,143.378,75.853,0.0180006,142739,0.115579,7.87722e8,9.10443e7,7.92966e8
6.28319,151.662,78.639,0.0180769,137421,0.120303,7.54758e8,9.07998e7,7.60200e8
6.28319,159.947,81.452,0.0181527,132168,0.124680,7.22497e8,9.00807e7,7.28091e8
6.28319,168.232,84.209,0.0182151,127697,0.127449,6.95423e8,8.86310e7,7.01049e8
6.28319,176.516,86.977,0.0182854,122812,0.132890,6.65788e8,8.84768e7,6.71641e8
6.28319,184.801,89.805,0.0183428,118419,0.134384,6.39840e8,8.59845e7,6.45591e8
6.28319,193.085,92.585,0.0184037,113902,0.137359,6.13151e8,8.42218e7,6.18908e8
6.28319,201.370,95.344,0.0184625,109708,0.141304,5.88377e8,8.31399e7,5.94222e8
6.28319,209.653,98.122,0.0185195,105456,0.143086,5.63694e8,8.06569e7,5.69435e8
6.28319,217.938,100.864,0.0185736,101428,0.146737,5.40301e8,7.92820e7,5.46087e8
6.28319,226.222,103.630,0.0186266,97442.2,0.149097,5.17415e8,7.71453e7,5.23135e8
6.28319,234.507,106.419,0.0186765,93687.2,0.152010,4.95935e8,7.53871e7,5.01632e8
6.28319,242.790,109.228,0.0187248,90097.3,0.154246,4.75543e8,7.33508e7,4.81167e8
6.28319,251.076,111.971,0.0187706,86422.1,0.157482,4.54807e8,7.16239e7,4.60412e8
6.28319,259.361,114.700,0.0188166,82994.6,0.159593,4.35560e8,6.95123e7,4.41072e8
6.28319,267.645,117.474,0.0188600,79651.2,0.162045,4.16891e8,6.75552e7,4.22329e8
6.28319,275.930,120.289,0.0189007,76475.2,0.164971,3.99219e8,6.58594e7,4.04615e8
6.28319,284.213,123.037,0.0189401,73420.6,0.166687,3.82371e8,6.37363e7,3.87647e8
6.28319,292.498,125.782,0.0189798,70382.9,0.170690,3.65545e8,6.23948e7,3.70831e8
6.28319,300.782,128.551,0.0190166,67423.5,0.172184,3.49409e8,6.01626e7,3.54550e8
6.28319,309.067,130.450,0.0190551,64550.5,0.176334,3.33610e8,5.88268e7,3.38757e8
6.28319,317.350,130.267,0.0190681,63164.4,0.172016,3.26462e8,5.61565e7,3.31256e8