Folder: upr_work/DATA-PRACTICUM1/exercises/data/multi_csv (part 2)

File: 50D_4_B.csv
Filename,50D_4_B
Instrument name,RSAG2
Operator,
rundate,5/29/2018
proceduresegments,Standard Oscillatory Temperature Ramp
[step]
Temperature Ramp - 1
Angular frequency,Step time,Temperature,Oscillation strain,Oscillation stress,Tan(delta),Storage modulus,Loss modulus,Complex modulus
rad/s,s,Â°C,%,Pa,,Pa,Pa,Pa
6.28319,8.02517,30.973,0.0158456,234702,0.0449176,1.47969e9,6.64640e7,1.48118e9
6.28319,16.3065,33.287,0.0158542,234146,0.0453951,1.47536e9,6.69739e7,1.47687e9
6.28319,24.5920,35.764,0.0158767,232928,0.0452046,1.46561e9,6.62523e7,1.46711e9
6.28319,32.8752,38.457,0.0159133,231199,0.0466593,1.45128e9,6.77158e7,1.45286e9
6.28319,41.1605,41.263,0.0159493,229251,0.0475603,1.43575e9,6.82845e7,1.43737e9
6.28319,49.4440,44.124,0.0160065,226366,0.0491863,1.41251e9,6.94761e7,1.41422e9
6.28319,57.7292,46.976,0.0160711,223181,0.0514891,1.38688e9,7.14091e7,1.38872e9
6.28319,66.0125,49.808,0.0161404,219389,0.0536929,1.35730e9,7.28775e7,1.35926e9
6.28319,74.2978,52.661,0.0162247,215112,0.0568626,1.32369e9,7.52687e7,1.32583e9
6.28319,82.5812,55.443,0.0163168,210431,0.0616422,1.28722e9,7.93470e7,1.28966e9
6.28319,90.8665,58.225,0.0164214,205120,0.0652972,1.24645e9,8.13896e7,1.24910e9
6.28319,99.1498,60.997,0.0165257,199608,0.0697662,1.20494e9,8.40638e7,1.20786e9
6.28319,107.435,63.784,0.0166418,193495,0.0739885,1.15953e9,8.57922e7,1.16270e9
6.28319,115.719,66.552,0.0167533,187649,0.0794203,1.11656e9,8.86774e7,1.12007e9
6.28319,124.004,69.347,0.0168642,181592,0.0832006,1.07308e9,8.92808e7,1.07679e9
6.28319,132.287,72.171,0.0169841,175368,0.0876070,1.02861e9,9.01131e7,1.03255e9
6.28319,140.573,74.932,0.0170988,168988,0.0934421,9.84015e8,9.19485e7,9.88302e8
6.28319,148.856,77.702,0.0172149,162624,0.0962582,9.40323e8,9.05138e7,9.44670e8
6.28319,157.141,80.468,0.0173249,156522,0.101873,8.98801e8,9.15632e7,9.03452e8
6.28319,165.424,83.295,0.0174321,150440,0.104687,8.58318e8,8.98551e7,8.63009e8
6.28319,173.710,86.074,0.0175301,144984,0.108453,8.22238e8,8.91739e7,8.27059e8
6.28319,182.872,89.141,0.0176225,139342,0.111133,7.85866e8,8.73358e7,7.90705e8
6.28319,191.144,91.892,0.0177033,134641,0.115297,7.55535e8,8.71109e7,7.60541e8
6.28319,203.856,96.142,0.0178244,127752,0.119241,7.11683e8,8.48621e7,7.16725e8
6.28319,212.099,98.902,0.0178890,123754,0.121286,6.86757e8,8.32938e7,6.91790e8
6.28319,220.384,101.687,0.0179595,119709,0.122433,6.61614e8,8.10033e7,6.66554e8
6.28319,228.668,104.469,0.0180210,116127,0.125923,6.39348e8,8.05088e7,6.44397e8
6.28319,236.953,107.239,0.0180811,112578,0.128027,6.17588e8,7.90683e7,6.22629e8
6.28319,245.236,109.997,0.0181381,109082,0.130047,5.96375e8,7.75566e7,6.01397e8
6.28319,253.521,112.773,0.0181913,105991,0.131961,5.77642e8,7.62265e7,5.82650e8
6.28319,261.805,115.509,0.0182488,102629,0.134121,5.57398e8,7.47590e7,5.62389e8
6.28319,270.090,118.343,0.0183018,99435.7,0.137322,5.38261e8,7.39148e7,5.43312e8
6.28319,278.373,121.093,0.0183541,96393.7,0.139781,5.20132e8,7.27048e7,5.25189e8
6.28319,286.659,123.833,0.0184034,93390.9,0.143091,5.02349e8,7.18815e7,5.07465e8
6.28319,294.942,126.575,0.0184542,90384.9,0.144799,4.84723e8,7.01877e7,4.89779e8
6.28319,303.227,129.333,0.0185024,87535.8,0.149082,4.67935e8,6.97604e7,4.73106e8
6.28319,311.511,130.098,0.0185434,84820.4,0.148633,4.52445e8,6.72481e7,4.57416e8
6.28319,319.796,130.261,0.0185594,83622.5,0.146294,4.45821e8,6.52211e7,4.50567e8

File: 50E_1_A.csv
Filename,50E_1_A
Instrument name,RSAG2
Operator,
rundate,5/28/2018
proceduresegments,Standard Oscillatory Temperature Ramp
[step]
Temperature Ramp - 1
Angular frequency,Step time,Temperature,Oscillation strain,Oscillation stress,Tan(delta),Storage modulus,Loss modulus,Complex modulus
rad/s,s,Â°C,%,Pa,,Pa,Pa,Pa
6.28319,8.02517,31.343,0.0172820,195229,0.0465430,1.12844e9,5.25212e7,1.12967e9
6.28319,16.3085,33.319,0.0172878,194722,0.0470579,1.12511e9,5.29453e7,1.12635e9
6.28319,24.5920,35.864,0.0173010,193773,0.0468124,1.11878e9,5.23728e7,1.12001e9
6.28319,32.8775,38.526,0.0173242,192254,0.0479897,1.10847e9,5.31949e7,1.10974e9
6.28319,41.1607,41.327,0.0173533,190249,0.0499986,1.09496e9,5.47464e7,1.09633e9
6.28319,49.4460,44.146,0.0173900,187885,0.0520357,1.07896e9,5.61444e7,1.08042e9
6.28319,57.7293,46.971,0.0174295,185295,0.0547858,1.06152e9,5.81562e7,1.06311e9
6.28319,66.3613,49.909,0.0174770,182122,0.0579361,1.04032e9,6.02720e7,1.04206e9
6.28319,74.6060,52.726,0.0175315,178436,0.0624272,1.01582e9,6.34149e7,1.01780e9
6.28319,82.8893,55.568,0.0175927,174406,0.0654356,9.89238e8,6.47314e7,9.91354e8
6.28319,98.3465,60.691,0.0177078,166133,0.0736120,9.35659e8,6.88757e7,9.38190e8
6.28319,106.597,63.475,0.0177777,161270,0.0782789,9.04385e8,7.07943e7,9.07152e8
6.28319,114.883,66.240,0.0178523,156131,0.0819793,8.71648e8,7.14571e7,8.74572e8
6.28319,123.166,69.073,0.0179274,151028,0.0891994,8.39113e8,7.48484e7,8.42445e8
6.28319,134.334,72.809,0.0180230,143903,0.0934386,7.94981e8,7.42819e7,7.98444e8
6.28319,143.320,75.825,0.0181021,138403,0.0982275,7.60907e8,7.47420e7,7.64569e8
6.28319,151.590,78.632,0.0181682,133428,0.102167,7.30598e8,7.46433e7,7.34401e8
6.28319,159.873,81.369,0.0182325,128824,0.105007,7.02701e8,7.37882e7,7.06564e8
6.28319,168.159,84.177,0.0182942,124309,0.109537,6.75459e8,7.39876e7,6.79499e8
6.28319,176.442,86.978,0.0183564,119781,0.113874,6.48342e8,7.38291e7,6.52532e8
6.28319,184.727,89.755,0.0184081,115956,0.116719,6.25668e8,7.30276e7,6.29916e8
6.28319,193.011,92.534,0.0184603,111868,0.119021,6.01744e8,7.16199e7,6.05991e8
6.28319,201.296,95.300,0.0185130,108143,0.123688,5.79729e8,7.17056e7,5.84146e8
6.28319,209.579,98.031,0.0185630,104216,0.125330,5.57060e8,6.98165e7,5.61418e8
6.28319,217.865,100.846,0.0186132,100701,0.129612,5.36530e8,6.95406e7,5.41018e8
6.28319,226.148,103.593,0.0186562,97152.2,0.132180,5.16259e8,6.82390e7,5.20749e8
6.28319,234.433,106.382,0.0187027,93627.9,0.134758,4.96127e8,6.68571e7,5.00611e8
6.28319,243.352,109.324,0.0187507,89886.1,0.137715,4.74893e8,6.54000e7,4.79375e8
6.28319,251.614,112.090,0.0187916,86694.9,0.141758,4.56783e8,6.47528e7,4.61350e8
6.28319,259.900,114.857,0.0188307,83643.1,0.142612,4.39735e8,6.27117e7,4.44185e8
6.28319,268.183,117.621,0.0188658,80815.0,0.145484,4.23905e8,6.16715e7,4.28367e8
6.28319,276.468,120.364,0.0189040,77791.3,0.147647,4.07093e8,6.01062e7,4.11506e8
6.28319,284.751,123.148,0.0189380,75150.7,0.150713,3.92392e8,5.91385e7,3.96824e8
6.28319,293.378,126.040,0.0189728,72265.9,0.153056,3.76507e8,5.76267e7,3.80891e8
6.28319,301.626,128.768,0.0190035,69851.9,0.154818,3.63247e8,5.62372e7,3.67575e8
6.28319,309.911,130.155,0.0190358,67266.3,0.156968,3.49093e8,5.47963e7,3.53367e8
6.28319,318.194,130.167,0.0190476,66147.8,0.155190,3.43168e8,5.32562e7,3.47276e8

File: 50E_4_B.csv
Filename,50E_4_B
Instrument name,RSAG2
Operator,
rundate,5/29/2018
proceduresegments,Standard Oscillatory Temperature Ramp
[step]
Temperature Ramp - 1
Angular frequency,Step time,Temperature,Oscillation strain,Oscillation stress,Tan(delta),Storage modulus,Loss modulus,Complex modulus
rad/s,s,Â°C,%,Pa,,Pa,Pa,Pa
6.28319,8.02517,29.485,0.0191595,335944,0.0392291,1.75207e9,6.87320e7,1.75341e9
6.28319,16.3085,32.926,0.0191744,332635,0.0393067,1.73345e9,6.81361e7,1.73478e9
6.28319,24.5918,35.935,0.0191961,328373,0.0417739,1.70913e9,7.13972e7,1.71062e9
6.28319,32.8772,38.821,0.0192217,324091,0.0434330,1.68448e9,7.31619e7,1.68607e9
6.28319,41.1605,41.731,0.0192449,318861,0.0459395,1.65512e9,7.60351e7,1.65686e9
6.28319,49.4458,44.557,0.0192704,313192,0.0477909,1.62340e9,7.75836e7,1.62525e9
6.28319,57.7292,47.332,0.0192969,307400,0.0500201,1.59101e9,7.95824e7,1.59300e9
6.28319,66.0145,50.073,0.0193306,301010,0.0532186,1.55497e9,8.27534e7,1.55717e9
6.28319,74.2978,52.837,0.0193589,294385,0.0549248,1.51838e9,8.33967e7,1.52067e9
6.28319,82.5832,55.583,0.0193878,286607,0.0582442,1.47578e9,8.59558e7,1.47828e9
6.28319,90.8667,58.340,0.0194241,279135,0.0610801,1.43438e9,8.76123e7,1.43706e9
6.28319,99.1518,61.087,0.0194550,271041,0.0650987,1.39023e9,9.05019e7,1.39317e9
6.28319,107.435,63.857,0.0194931,261935,0.0688091,1.34056e9,9.22430e7,1.34373e9
6.28319,115.721,66.636,0.0195265,253111,0.0731381,1.29279e9,9.45520e7,1.29624e9
6.28319,124.004,69.409,0.0195582,243817,0.0771040,1.24293e9,9.58352e7,1.24662e9
6.28319,132.289,72.227,0.0195951,234373,0.0816295,1.19211e9,9.73115e7,1.19608e9
6.28319,140.573,75.002,0.0196254,225075,0.0876937,1.14247e9,1.00188e8,1.14686e9
6.28319,148.858,77.785,0.0196551,215817,0.0906427,1.09354e9,9.91213e7,1.09802e9
6.28319,157.141,80.548,0.0196809,207088,0.0965707,1.04735e9,1.01144e8,1.05223e9
6.28319,165.426,83.344,0.0197020,199081,0.0992739,1.00552e9,9.98216e7,1.01046e9
6.28319,173.710,86.089,0.0197183,191557,0.101600,9.66493e8,9.81958e7,9.71469e8
6.28319,181.995,88.877,0.0197360,184666,0.105097,9.30554e8,9.77982e7,9.35679e8
6.28319,190.278,91.612,0.0197493,178105,0.107417,8.96674e8,9.63177e7,9.01832e8
6.28319,198.564,94.346,0.0197635,171504,0.111316,8.62453e8,9.60050e7,8.67780e8
6.28319,206.847,97.147,0.0197767,165898,0.113851,8.33476e8,9.48919e7,8.38860e8
6.28319,215.132,99.935,0.0197825,160622,0.114992,8.06626e8,9.27558e7,8.11942e8
6.28319,223.416,102.711,0.0197919,155365,0.118485,7.79540e8,9.23638e7,7.84993e8
6.28319,231.701,105.466,0.0197984,150493,0.118814,7.54816e8,8.96830e7,7.60125e8
6.28319,239.985,108.215,0.0198079,145835,0.122072,7.30824e8,8.92129e7,7.36249e8
6.28319,248.270,111.022,0.0198152,141211,0.124265,7.07202e8,8.78803e7,7.12642e8
6.28319,256.553,113.811,0.0198220,136694,0.126688,6.84142e8,8.66723e7,6.89610e8
6.28319,264.839,116.580,0.0198287,132519,0.127422,6.62959e8,8.44754e7,6.68319e8
6.28319,273.122,119.330,0.0198327,128242,0.130007,6.41225e8,8.33634e7,6.46621e8
6.28319,281.407,122.088,0.0198374,123593,0.130923,6.17759e8,8.08788e7,6.23031e8
6.28319,289.693,124.831,0.0198430,119542,0.134408,5.97074e8,8.02515e7,6.02443e8
6.28319,297.976,127.622,0.0198454,114980,0.135452,5.74134e8,7.77678e7,5.79377e8
6.28319,306.261,130.352,0.0198516,110778,0.139298,5.52694e8,7.69891e7,5.58030e8
6.28319,314.545,130.254,0.0198521,107979,0.139414,5.38707e8,7.51031e7,5.43917e8
6.28319,322.830,130.223,0.0198477,105880,0.135906,5.28602e8,7.18401e7,5.33462e8

File: 50F_1_A.csv
Filename,50F_1_A
Instrument name,RSAG2
Operator,
rundate,5/28/2018
proceduresegments,Standard Oscillatory Temperature Ramp
[step]
Temperature Ramp - 1
Angular frequency,Step time,Temperature,Oscillation strain,Oscillation stress,Tan(delta),Storage modulus,Loss modulus,Complex modulus
rad/s,s,Â°C,%,Pa,,Pa,Pa,Pa
6.28319,8.02517,31.348,0.0172056,187424,0.0486129,1.08804e9,5.28925e7,1.08932e9
6.28319,16.3085,33.314,0.0172141,186846,0.0488479,1.08413e9,5.29575e7,1.08542e9
6.28319,24.5920,35.803,0.0172326,185559,0.0486807,1.07551e9,5.23568e7,1.07679e9
6.28319,32.8773,38.523,0.0172567,184081,0.0501343,1.06538e9,5.34121e7,1.06672e9
6.28319,41.1605,41.266,0.0172899,181989,0.0515068,1.05118e9,5.41428e7,1.05257e9
6.28319,55.3843,46.135,0.0173558,177871,0.0560178,1.02324e9,5.73198e7,1.02485e9
6.28319,63.6448,48.998,0.0174025,174889,0.0586721,1.00324e9,5.88621e7,1.00497e9
6.28319,71.9302,51.870,0.0174519,171726,0.0603932,9.82210e8,5.93189e7,9.84000e8
6.28319,80.2133,54.644,0.0175093,168191,0.0646302,9.58586e8,6.19536e7,9.60585e8
6.28319,101.361,61.722,0.0176635,158062,0.0744922,8.92379e8,6.64753e7,8.94852e8
6.28319,109.633,64.485,0.0177299,153727,0.0780211,8.64422e8,6.74432e7,8.67049e8
6.28319,117.918,67.238,0.0178066,148860,0.0824948,8.33155e8,6.87309e7,8.35985e8
6.28319,126.202,70.076,0.0178777,144040,0.0857606,8.02751e8,6.88444e7,8.05697e8
6.28319,134.487,72.849,0.0179514,139288,0.0915084,7.72691e8,7.07077e7,7.75920e8
6.28319,142.770,75.635,0.0180204,134779,0.0954220,7.44545e8,7.10459e7,7.47927e8
6.28319,151.056,78.416,0.0180866,130253,0.0997103,7.16611e8,7.14535e7,7.20164e8
6.28319,159.339,81.166,0.0181476,125997,0.101616,6.90733e8,7.01892e7,6.94290e8
6.28319,167.624,83.942,0.0182073,121890,0.106055,6.65724e8,7.06036e7,6.69457e8
6.28319,175.908,86.747,0.0182668,117838,0.108124,6.41359e8,6.93460e7,6.45097e8
6.28319,187.376,90.548,0.0183494,112272,0.114390,6.07891e8,6.95369e7,6.11855e8
6.28319,195.638,93.325,0.0184022,108466,0.116822,5.85438e8,6.83917e7,5.89419e8
6.28319,203.923,96.173,0.0184574,104672,0.119786,5.63074e8,6.74485e7,5.67099e8
6.28319,212.207,98.937,0.0185098,101114,0.124204,5.42105e8,6.73314e7,5.46270e8
6.28319,220.492,101.684,0.0185646,97195.0,0.127132,5.19370e8,6.60285e7,5.23550e8
6.28319,228.775,104.465,0.0186139,93669.7,0.129630,4.99048e8,6.46916e7,5.03224e8
6.28319,237.061,107.216,0.0186632,90010.2,0.133373,4.78053e8,6.37592e7,4.82286e8
6.28319,245.344,110.035,0.0187098,86797.4,0.136109,4.59676e8,6.25662e7,4.63914e8
6.28319,253.630,112.824,0.0187538,83511.8,0.137382,4.41162e8,6.06079e7,4.45305e8
6.28319,261.913,115.586,0.0187998,80166.0,0.139542,4.22328e8,5.89326e7,4.26420e8
6.28319,270.198,118.346,0.0188388,77133.7,0.140812,4.05442e8,5.70910e7,4.09442e8
6.28319,278.482,121.112,0.0188800,74201.3,0.143953,3.89005e8,5.59984e7,3.93015e8
6.28319,286.767,123.876,0.0189193,71377.5,0.145668,3.73333e8,5.43828e7,3.77273e8
6.28319,295.050,126.599,0.0189524,68683.3,0.148444,3.58471e8,5.32128e7,3.62399e8
6.28319,303.336,129.410,0.0189888,66064.5,0.151289,3.43998e8,5.20432e7,3.47912e8
6.28319,311.619,130.026,0.0190210,63676.2,0.152783,3.30929e8,5.05604e7,3.34769e8
6.28319,319.904,130.139,0.0190340,62387.0,0.150147,3.24133e8,4.86675e7,3.27766e8

File: 50F_4_B.csv
Filename,50F_4_B
Instrument name,RSAG2
Operator,
rundate,5/29/2018
proceduresegments,Standard Oscillatory Temperature Ramp
[step]
Temperature Ramp - 1
Angular frequency,Step time,Temperature,Oscillation strain,Oscillation stress,Tan(delta),Storage modulus,Loss modulus,Complex modulus
rad/s,s,Â°C,%,Pa,,Pa,Pa,Pa
6.28319,12.8963,32.309,0.0164967,260363,0.0444782,1.57671e9,7.01292e7,1.57827e9
6.28319,21.1522,34.897,0.0165079,259296,0.0439568,1.56923e9,6.89782e7,1.57074e9
6.28319,29.4375,37.427,0.0165331,257783,0.0449219,1.55762e9,6.99713e7,1.55919e9
6.28319,37.7208,40.126,0.0165597,255953,0.0456128,1.54403e9,7.04277e7,1.54564e9
6.28319,46.0062,42.920,0.0165888,253932,0.0464799,1.52910e9,7.10722e7,1.53075e9
6.28319,54.2895,45.758,0.0166317,251268,0.0493751,1.50894e9,7.45040e7,1.51078e9
6.28319,62.5748,48.641,0.0166760,247928,0.0503900,1.48485e9,7.48217e7,1.48674e9
6.28319,70.8582,51.454,0.0167295,244535,0.0530181,1.45965e9,7.73878e7,1.46170e9
6.28319,79.3788,54.293,0.0167858,240492,0.0559723,1.43047e9,8.00668e7,1.43271e9
6.28319,87.6308,57.058,0.0168472,236253,0.0581205,1.39997e9,8.13669e7,1.40233e9
6.28319,95.9162,59.903,0.0169222,231164,0.0623013,1.36340e9,8.49414e7,1.36604e9
6.28319,104.200,62.665,0.0169983,225975,0.0661814,1.32649e9,8.77892e7,1.32940e9
6.28319,112.485,65.456,0.0170815,220116,0.0692393,1.28555e9,8.90103e7,1.28862e9
6.28319,122.370,68.801,0.0171826,212661,0.0747630,1.23421e9,9.22732e7,1.23765e9
6.28319,130.633,71.573,0.0172650,206792,0.0794969,1.19399e9,9.49183e7,1.19775e9
6.28319,138.919,74.344,0.0173590,200039,0.0844385,1.14828e9,9.69589e7,1.15236e9
6.28319,147.202,77.116,0.0174466,193818,0.0880930,1.10664e9,9.74869e7,1.11092e9
6.28319,155.487,79.922,0.0175347,187729,0.0940182,1.06591e9,1.00215e8,1.07061e9
6.28319,163.771,82.732,0.0176123,181722,0.0947656,1.02718e9,9.73418e7,1.03179e9
6.28319,172.056,85.497,0.0176943,176036,0.102151,9.89726e8,1.01102e8,9.94877e8
6.28319,180.339,88.248,0.0177660,170678,0.103618,9.55587e8,9.90156e7,9.60703e8
6.28319,188.625,91.070,0.0178265,165861,0.106200,9.25216e8,9.82581e7,9.30419e8
6.28319,196.908,93.841,0.0178909,161395,0.109841,8.96712e8,9.84960e7,9.02105e8
6.28319,205.193,96.596,0.0179450,157134,0.112264,8.70174e8,9.76888e7,8.75641e8
6.28319,213.477,99.347,0.0180008,153005,0.115490,8.44376e8,9.75166e7,8.49989e8
6.28319,221.762,102.103,0.0180531,149084,0.117277,8.20189e8,9.61891e7,8.25810e8
6.28319,230.045,104.915,0.0180974,145570,0.120263,7.98613e8,9.60438e7,8.04368e8
6.28319,244.367,109.717,0.0181794,139281,0.123455,7.60375e8,9.38720e7,7.66148e8
6.28319,252.632,112.460,0.0182310,135373,0.127588,7.36572e8,9.39777e7,7.42543e8
6.28319,260.917,115.210,0.0182795,131527,0.128642,7.13651e8,9.18052e7,7.19532e8
6.28319,269.200,117.948,0.0183295,127558,0.130371,6.90075e8,8.99657e7,6.95914e8
6.28319,277.486,120.747,0.0183808,123564,0.133762,6.66310e8,8.91271e7,6.72244e8
6.28319,285.769,123.512,0.0184351,119345,0.135700,6.41497e8,8.70514e7,6.47376e8
6.28319,294.054,126.330,0.0184906,115065,0.140531,6.16234e8,8.66000e7,6.22290e8
6.28319,302.337,129.040,0.0185498,110359,0.142924,5.88950e8,8.41753e7,5.94935e8
6.28319,310.623,130.163,0.0186026,106070,0.145812,5.64225e8,8.22707e7,5.70192e8
6.28319,318.906,130.241,0.0186266,103880,0.143372,5.52051e8,7.91486e7,5.57696e8

File: 50G_1_A.csv
Filename,50G_1_A
Instrument name,RSAG2
Operator,
rundate,5/28/2018
proceduresegments,Standard Oscillatory Temperature Ramp
[step]
Temperature Ramp - 1
Angular frequency,Step time,Temperature,Oscillation strain,Oscillation stress,Tan(delta),Storage modulus,Loss modulus,Complex modulus
rad/s,s,Â°C,%,Pa,,Pa,Pa,Pa
6.28319,8.02500,31.864,0.0168740,198426,0.0520875,1.17433e9,6.11680e7,1.17592e9
6.28319,16.3063,33.632,0.0168769,198150,0.0512353,1.17255e9,6.00760e7,1.17409e9
6.28319,24.5917,35.914,0.0168868,197541,0.0510299,1.16828e9,5.96170e7,1.16980e9
6.28319,32.8752,38.562,0.0169074,196365,0.0520956,1.15984e9,6.04225e7,1.16141e9
6.28319,41.1603,41.309,0.0169326,194810,0.0530862,1.14888e9,6.09899e7,1.15050e9
6.28319,49.4437,44.105,0.0169692,192722,0.0552168,1.13398e9,6.26150e7,1.13571e9
6.28319,57.7292,46.936,0.0170124,190095,0.0568927,1.11559e9,6.34689e7,1.11739e9
6.28319,66.0123,49.773,0.0170631,187242,0.0603127,1.09536e9,6.60641e7,1.09735e9
6.28319,74.2977,52.647,0.0171191,183922,0.0627284,1.07226e9,6.72611e7,1.07437e9
6.28319,82.5812,55.461,0.0171843,180237,0.0673729,1.04647e9,7.05040e7,1.04885e9
6.28319,90.8663,58.258,0.0172541,176143,0.0705061,1.01835e9,7.17998e7,1.02088e9
6.28319,99.1497,61.028,0.0173314,171637,0.0757482,9.87494e8,7.48009e7,9.90323e8
6.28319,107.435,63.803,0.0174157,166640,0.0805430,9.53753e8,7.68181e7,9.56842e8
6.28319,115.718,66.588,0.0174955,161732,0.0843555,9.21144e8,7.77036e7,9.24416e8
6.28319,124.004,69.399,0.0175868,156199,0.0907773,8.84525e8,8.02948e7,8.88162e8
6.28319,132.287,72.159,0.0176662,151224,0.0934372,8.52295e8,7.96360e7,8.56007e8
6.28319,140.572,74.920,0.0177487,146212,0.0990459,8.19780e8,8.11958e7,8.23791e8
6.28319,148.856,77.690,0.0178276,141271,0.101925,7.88341e8,8.03518e7,7.92425e8
6.28319,157.141,80.463,0.0179000,136604,0.106114,7.58886e8,8.05281e7,7.63147e8
6.28319,165.424,83.237,0.0179754,131893,0.109687,7.29365e8,8.00022e7,7.33740e8
6.28319,173.710,86.016,0.0180428,127513,0.112588,7.02284e8,7.90691e7,7.06722e8
6.28319,181.993,88.792,0.0181069,123364,0.116591,6.76723e8,7.88998e7,6.81307e8
6.28319,190.278,91.585,0.0181735,119082,0.119646,6.50609e8,7.78429e7,6.55249e8
6.28319,198.562,94.349,0.0182346,115070,0.123541,6.26295e8,7.73730e7,6.31057e8
6.28319,206.847,97.122,0.0182956,111201,0.126435,6.03004e8,7.62405e7,6.07805e8
6.28319,215.130,99.891,0.0183571,107081,0.130185,5.78442e8,7.53046e7,5.83323e8
6.28319,223.416,102.695,0.0184128,103213,0.131623,5.55758e8,7.31507e7,5.60551e8
6.28319,231.699,105.483,0.0184676,99566.0,0.134436,5.34331e8,7.18335e7,5.39138e8
6.28319,246.854,110.499,0.0185705,92676.6,0.141340,4.94142e8,6.98420e7,4.99053e8
6.28319,255.101,113.272,0.0186212,89181.8,0.144022,4.74035e8,6.82715e7,4.78926e8
6.28319,263.387,116.092,0.0186704,85759.4,0.145749,4.54531e8,6.62475e7,4.59334e8
6.28319,271.670,118.849,0.0187194,82438.9,0.150068,4.35515e8,6.53570e7,4.40392e8
6.28319,279.955,121.623,0.0187652,79132.9,0.150941,4.16976e8,6.29387e7,4.21699e8
6.28319,288.238,124.391,0.0188073,76145.6,0.153173,4.00205e8,6.13006e7,4.04872e8
6.28319,296.524,127.173,0.0188483,73224.9,0.155275,3.83896e8,5.96096e7,3.88496e8
6.28319,304.807,129.922,0.0188850,70496.0,0.154077,3.68938e8,5.68450e7,3.73292e8
6.28319,313.092,130.179,0.0189130,68454.6,0.154785,3.57686e8,5.53644e7,3.61945e8
6.28319,321.376,130.230,0.0189284,67079.2,0.151277,3.50398e8,5.30071e7,3.54384e8

File: 50G_4_B.csv
Filename,50G_4_B
Instrument name,RSAG2
Operator,
rundate,5/29/2018
proceduresegments,Standard Oscillatory Temperature Ramp
[step]
Temperature Ramp - 1
Angular frequency,Step time,Temperature,Oscillation strain,Oscillation stress,Tan(delta),Storage modulus,Loss modulus,Complex modulus
rad/s,s,Â°C,%,Pa,,Pa,Pa,Pa
6.28319,8.02517,31.052,0.0163218,231873,0.0420165,1.41938e9,5.96375e7,1.42064e9
6.28319,16.3065,33.190,0.0163273,231375,0.0418252,1.41587e9,5.92190e7,1.41710e9
6.28319,24.5920,35.793,0.0163480,230098,0.0416463,1.40628e9,5.85665e7,1.40750e9
6.28319,32.8752,38.489,0.0163773,228457,0.0432775,1.39365e9,6.03139e7,1.39496e9
6.28319,41.1605,41.262,0.0164136,226437,0.0440416,1.37823e9,6.06996e7,1.37957e9
6.28319,49.4458,44.138,0.0164591,223812,0.0458430,1.35839e9,6.22726e7,1.35981e9
6.28319,57.7292,46.963,0.0165134,220671,0.0481994,1.33477e9,6.43351e7,1.33632e9
6.28319,66.0145,49.770,0.0165775,216975,0.0514499,1.30712e9,6.72513e7,1.30885e9
6.28319,74.2978,52.581,0.0166476,213108,0.0541592,1.27824e9,6.92282e7,1.28011e9
6.28319,82.5832,55.365,0.0167322,207977,0.0583984,1.24086e9,7.24645e7,1.24298e9
6.28319,90.8665,58.142,0.0168146,203186,0.0614132,1.20612e9,7.40716e7,1.20839e9
6.28319,99.1518,60.976,0.0169114,197594,0.0666639,1.16582e9,7.77181e7,1.16841e9
6.28319,109.376,64.392,0.0170365,190369,0.0731653,1.11444e9,8.15382e7,1.11742e9
6.28319,117.659,67.158,0.0171404,184056,0.0776312,1.07059e9,8.31114e7,1.07381e9
6.28319,125.942,69.946,0.0172503,177243,0.0806250,1.02415e9,8.25721e7,1.02747e9
6.28319,134.227,72.723,0.0173567,170983,0.0866222,9.81439e8,8.50144e7,9.85115e8
6.28319,142.510,75.548,0.0174605,164379,0.0908524,9.37571e8,8.51806e7,9.41433e8
6.28319,150.796,78.321,0.0175652,158050,0.0955310,8.95711e8,8.55682e7,8.99789e8
6.28319,159.079,81.111,0.0176572,152230,0.0995959,8.57894e8,8.54428e7,8.62139e8
6.28319,167.365,83.871,0.0177454,146711,0.102915,8.22410e8,8.46381e7,8.26754e8
6.28319,175.648,86.674,0.0178319,141163,0.107418,7.87101e8,8.45491e7,7.91629e8
6.28319,183.933,89.481,0.0179097,136150,0.109972,7.55651e8,8.31004e7,7.60206e8
6.28319,192.217,92.223,0.0179836,131346,0.113054,7.25742e8,8.20484e7,7.30365e8
6.28319,200.502,94.999,0.0180502,126931,0.115311,6.98583e8,8.05546e7,7.03212e8
6.28319,208.785,97.757,0.0181157,122772,0.117966,6.73045e8,7.93963e7,6.77712e8
6.28319,217.071,100.558,0.0181749,118778,0.120665,6.48820e8,7.82900e7,6.53526e8
6.28319,225.354,103.313,0.0182337,114878,0.123490,6.25283e8,7.72161e7,6.30033e8
6.28319,233.639,106.085,0.0182831,111351,0.122946,6.04487e8,7.43191e7,6.09038e8
6.28319,241.923,108.814,0.0183375,107750,0.126267,5.82962e8,7.36090e7,5.87591e8
6.28319,250.208,111.577,0.0183900,104393,0.129828,5.62935e8,7.30846e7,5.67659e8
6.28319,258.491,114.331,0.0184417,100902,0.130512,5.42541e8,7.08081e7,5.47142e8
6.28319,266.777,117.132,0.0184874,97778.1,0.132046,5.24339e8,6.92367e7,5.28891e8
6.28319,275.060,119.944,0.0185360,94381.4,0.135444,5.04571e8,6.83411e7,5.09178e8
6.28319,283.345,122.653,0.0185833,91352.6,0.139428,4.86874e8,6.78836e7,4.91583e8
6.28319,291.629,125.418,0.0186311,88024.4,0.140845,4.67841e8,6.58929e7,4.72459e8
6.28319,299.914,128.175,0.0186731,85127.0,0.142867,4.51298e8,6.44755e7,4.55881e8
6.28319,308.197,130.591,0.0187186,82083.3,0.147393,4.33824e8,6.39426e7,4.38511e8
6.28319,316.482,130.324,0.0187407,80177.8,0.143128,4.23512e8,6.06165e7,4.27828e8