Folder: upr_work/DATA-PRACTICUM1/exercises/data/multi_csv (part 4)

File: 60D_4_B.csv
Filename,60D_4_B
Instrument name,RSAG2
Operator,
rundate,5/31/2018
proceduresegments,Standard Oscillatory Temperature Ramp
[step]
Temperature Ramp - 1
Angular frequency,Step time,Temperature,Oscillation strain,Oscillation stress,Tan(delta),Storage modulus,Loss modulus,Complex modulus
rad/s,s,Â°C,%,Pa,,Pa,Pa,Pa
6.28319,8.02517,28.947,0.0164823,244363,0.0409735,1.48134e9,6.06955e7,1.48258e9
6.28319,16.3085,30.708,0.0164907,243690,0.0401780,1.47655e9,5.93247e7,1.47774e9
6.28319,24.5920,32.949,0.0165091,242495,0.0413827,1.46760e9,6.07333e7,1.46886e9
6.28319,32.8773,35.502,0.0165374,240721,0.0420300,1.45433e9,6.11254e7,1.45561e9
6.28319,41.1607,38.130,0.0165694,238653,0.0438578,1.43894e9,6.31089e7,1.44033e9
6.28319,49.4460,40.894,0.0166134,235890,0.0455333,1.41840e9,6.45846e7,1.41987e9
6.28319,57.7293,43.734,0.0166652,232751,0.0493001,1.39493e9,6.87703e7,1.39663e9
6.28319,68.3682,47.457,0.0167337,228569,0.0528573,1.36402e9,7.20985e7,1.36593e9
6.28319,76.6438,50.247,0.0167995,224478,0.0583188,1.33395e9,7.77943e7,1.33621e9
6.28319,84.9292,53.052,0.0168698,219807,0.0597794,1.30064e9,7.77516e7,1.30296e9
6.28319,93.2125,55.818,0.0169390,215453,0.0638271,1.26935e9,8.10188e7,1.27193e9
6.28319,101.498,58.582,0.0170255,209760,0.0682334,1.22918e9,8.38710e7,1.23203e9
6.28319,109.781,61.346,0.0171061,204664,0.0721516,1.19334e9,8.61015e7,1.19644e9
6.28319,119.362,64.567,0.0172046,197914,0.0777323,1.14690e9,8.91508e7,1.15036e9
6.28319,130.378,68.280,0.0173341,189477,0.0848377,1.08917e9,9.24031e7,1.09309e9
6.28319,138.665,71.057,0.0174243,183442,0.0914385,1.04842e9,9.58658e7,1.05279e9
6.28319,146.950,73.857,0.0175211,177088,0.0964747,1.00604e9,9.70575e7,1.01071e9
6.28319,155.233,76.650,0.0176127,171031,0.101990,9.66057e8,9.85280e7,9.71068e8
6.28319,163.519,79.452,0.0176953,165369,0.107154,9.29215e8,9.95690e7,9.34534e8
6.28319,171.802,82.239,0.0177797,159527,0.110372,8.91825e8,9.84322e7,8.97241e8
6.28319,180.087,85.000,0.0178534,154109,0.112368,8.57790e8,9.63882e7,8.63189e8
6.28319,188.371,87.834,0.0179332,148611,0.115861,8.23185e8,9.53751e7,8.28692e8
6.28319,196.656,90.585,0.0180018,143893,0.121616,7.93479e8,9.64995e7,7.99325e8
6.28319,204.941,93.376,0.0180686,139070,0.123001,7.63920e8,9.39628e7,7.69677e8
6.28319,213.225,96.145,0.0181289,134684,0.126992,7.37006e8,9.35939e7,7.42925e8
6.28319,221.510,98.924,0.0181959,129931,0.129924,7.08114e8,9.20012e7,7.14066e8
6.28319,229.794,101.729,0.0182506,125924,0.131818,6.84054e8,9.01707e7,6.89971e8
6.28319,238.079,104.468,0.0183062,121776,0.136190,6.59133e8,8.97672e7,6.65218e8
6.28319,246.362,107.249,0.0183624,117604,0.137654,6.34481e8,8.73388e7,6.40464e8
6.28319,254.647,109.997,0.0184120,113824,0.139554,6.12275e8,8.54457e7,6.18208e8
6.28319,262.931,112.751,0.0184725,109553,0.144489,5.86963e8,8.48096e7,5.93059e8
6.28319,271.216,115.568,0.0185270,105461,0.147141,5.63166e8,8.28648e7,5.69230e8
6.28319,279.499,118.333,0.0185770,101739,0.149970,5.41602e8,8.12243e7,5.47659e8
6.28319,287.785,121.100,0.0186328,97617.5,0.155217,5.17701e8,8.03559e7,5.23901e8
6.28319,296.068,123.859,0.0186843,93545.5,0.155537,4.94715e8,7.69466e7,5.00664e8
6.28319,304.353,126.645,0.0187452,89177.3,0.161447,4.69652e8,7.58239e7,4.75733e8
6.28319,312.637,129.372,0.0187999,85175.3,0.167691,4.46824e8,7.49282e7,4.53063e8
6.28319,320.922,130.027,0.0188471,81440.3,0.170620,4.25956e8,7.26768e7,4.32111e8
6.28319,329.207,130.208,0.0188681,79413.6,0.165199,4.15259e8,6.86005e7,4.20887e8

File: 60E_1_A.csv
Filename,60E_1_A
Instrument name,RSAG2
Operator,
rundate,5/30/2018
proceduresegments,Standard Oscillatory Temperature Ramp
[step]
Temperature Ramp - 1
Angular frequency,Step time,Temperature,Oscillation strain,Oscillation stress,Tan(delta),Storage modulus,Loss modulus,Complex modulus
rad/s,s,Â°C,%,Pa,,Pa,Pa,Pa
6.28319,8.02533,30.771,0.0186517,135685,0.0525111,7.26469e8,3.81477e7,7.27470e8
6.28319,16.3087,33.204,0.0186659,134993,0.0533233,7.22177e8,3.85089e7,7.23203e8
6.28319,24.5920,35.789,0.0186978,133669,0.0541517,7.13846e8,3.86560e7,7.14892e8
6.28319,32.8775,38.517,0.0187340,132096,0.0555998,7.04027e8,3.91438e7,7.05114e8
6.28319,41.1607,41.361,0.0187765,130172,0.0577811,6.92115e8,3.99912e7,6.93269e8
6.28319,49.4460,44.185,0.0188302,127894,0.0603949,6.77961e8,4.09454e7,6.79196e8
6.28319,57.7295,47.061,0.0188870,125433,0.0635740,6.62785e8,4.21359e7,6.64123e8
6.28319,66.0147,49.869,0.0189503,122653,0.0673227,6.45775e8,4.34753e7,6.47237e8
6.28319,74.2980,52.641,0.0190196,119715,0.0718412,6.27810e8,4.51026e7,6.29428e8
6.28319,82.5835,55.433,0.0190918,116398,0.0757055,6.07935e8,4.60240e7,6.09674e8
6.28319,90.8667,58.207,0.0191677,113050,0.0793374,5.87950e8,4.66464e7,5.89797e8
6.28319,99.1520,61.035,0.0192500,109524,0.0854697,5.66887e8,4.84516e7,5.68954e8
6.28319,108.853,64.254,0.0193437,105291,0.0911297,5.42072e8,4.93989e7,5.44318e8
6.28319,117.097,67.027,0.0194285,101397,0.0962147,5.19501e8,4.99837e7,5.21900e8
6.28319,125.382,69.803,0.0195126,97554.2,0.101887,4.97379e8,5.06767e7,4.99954e8
6.28319,133.666,72.618,0.0195949,93786.8,0.107361,4.75893e8,5.10923e7,4.78628e8
6.28319,147.875,77.401,0.0197203,87861.3,0.114366,4.42651e8,5.06244e7,4.45537e8
6.28319,156.149,80.170,0.0197889,84487.4,0.119389,4.23932e8,5.06127e7,4.26943e8
6.28319,164.435,82.922,0.0198547,81389.8,0.123819,4.06821e8,5.03722e7,4.09928e8
6.28319,172.718,85.713,0.0199147,78448.3,0.125896,3.90837e8,4.92049e7,3.93922e8
6.28319,181.003,88.506,0.0199777,75459.5,0.130785,3.74528e8,4.89826e7,3.77718e8
6.28319,189.287,91.277,0.0200365,72567.3,0.134429,3.58946e8,4.82528e7,3.62175e8
6.28319,201.843,95.472,0.0201169,68565.5,0.138783,3.37600e8,4.68532e7,3.40836e8
6.28319,216.818,100.508,0.0202145,63733.1,0.145091,3.12017e8,4.52710e7,3.15284e8
6.28319,225.106,103.274,0.0202603,61473.7,0.148993,3.00107e8,4.47139e7,3.03420e8
6.28319,233.391,106.010,0.0203119,59068.5,0.153563,2.87438e8,4.41398e7,2.90807e8
6.28319,241.675,108.776,0.0203560,56577.9,0.154807,2.74670e8,4.25208e7,2.77942e8
6.28319,249.960,111.609,0.0204008,54259.2,0.157144,2.62742e8,4.12882e7,2.65966e8
6.28319,258.243,114.384,0.0204452,52144.5,0.159495,2.51862e8,4.01709e7,2.55046e8
6.28319,266.529,117.142,0.0204821,50096.8,0.162923,2.41405e8,3.93304e7,2.44588e8
6.28319,274.812,119.870,0.0205241,47976.0,0.165458,2.30619e8,3.81577e7,2.33754e8
6.28319,283.097,122.670,0.0205621,45972.0,0.169382,2.20437e8,3.73381e7,2.23577e8
6.28319,291.381,125.373,0.0205985,44135.8,0.170011,2.11236e8,3.59125e7,2.14267e8
6.28319,299.666,128.206,0.0206309,42306.5,0.170964,2.02131e8,3.45571e7,2.05064e8
6.28319,307.949,130.540,0.0206665,40548.2,0.175628,1.93245e8,3.39392e7,1.96203e8
6.28319,316.235,130.279,0.0206854,39351.6,0.173747,1.87430e8,3.25654e7,1.90238e8

File: 60E_4_B.csv
Filename,60E_4_B
Instrument name,RSAG2
Operator,
rundate,5/31/2018
proceduresegments,Standard Oscillatory Temperature Ramp
[step]
Temperature Ramp - 1
Angular frequency,Step time,Temperature,Oscillation strain,Oscillation stress,Tan(delta),Storage modulus,Loss modulus,Complex modulus
rad/s,s,Â°C,%,Pa,,Pa,Pa,Pa
6.28319,8.02500,29.409,0.0152583,280547,0.0378095,1.83733e9,6.94686e7,1.83865e9
6.28319,16.3083,31.013,0.0152623,280209,0.0374368,1.83467e9,6.86841e7,1.83595e9
6.28319,24.5938,33.018,0.0152757,279483,0.0373017,1.82832e9,6.81997e7,1.82960e9
6.28319,32.8770,35.580,0.0152979,278321,0.0383122,1.81801e9,6.96518e7,1.81934e9
6.28319,41.1623,38.151,0.0153304,276601,0.0395036,1.80286e9,7.12194e7,1.80427e9
6.28319,49.4477,40.878,0.0153699,274561,0.0405620,1.78489e9,7.23985e7,1.78635e9
6.28319,57.7310,43.700,0.0154189,272056,0.0429881,1.76280e9,7.57797e7,1.76443e9
6.28319,66.0163,46.583,0.0154760,268936,0.0446344,1.73604e9,7.74869e7,1.73777e9
6.28319,74.2997,49.409,0.0155460,265456,0.0478767,1.70560e9,8.16584e7,1.70755e9
6.28319,82.5852,52.214,0.0156353,260652,0.0511456,1.66490e9,8.51523e7,1.66708e9
6.28319,90.8683,54.995,0.0157265,256156,0.0556575,1.62630e9,9.05156e7,1.62881e9
6.28319,99.1537,57.758,0.0158228,250934,0.0588464,1.58316e9,9.31633e7,1.58590e9
6.28319,107.437,60.541,0.0159441,244301,0.0619477,1.52931e9,9.47372e7,1.53224e9
6.28319,115.722,63.368,0.0160639,237950,0.0677961,1.47788e9,1.00194e8,1.48127e9
6.28319,130.885,68.446,0.0163043,224989,0.0769973,1.37586e9,1.05938e8,1.37994e9
6.28319,139.128,71.225,0.0164337,217704,0.0829402,1.32021e9,1.09498e8,1.32474e9
6.28319,147.412,73.985,0.0165721,209992,0.0869372,1.26238e9,1.09748e8,1.26714e9
6.28319,155.697,76.828,0.0166912,203154,0.0905911,1.21216e9,1.09811e8,1.21713e9
6.28319,163.980,79.600,0.0168211,196192,0.0979424,1.16079e9,1.13690e8,1.16634e9
6.28319,172.266,82.414,0.0169274,189656,0.0980922,1.11506e9,1.09379e8,1.12041e9
6.28319,180.549,85.166,0.0170413,183081,0.103111,1.06867e9,1.10191e8,1.07433e9
6.28319,188.835,87.962,0.0171477,177000,0.106732,1.02638e9,1.09547e8,1.03221e9
6.28319,197.118,90.731,0.0172363,171582,0.110111,9.89491e8,1.08954e8,9.95471e8
6.28319,205.403,93.517,0.0173346,166080,0.114497,9.51865e8,1.08986e8,9.58084e8
6.28319,213.687,96.261,0.0174178,161039,0.117668,9.18231e8,1.08046e8,9.24566e8
6.28319,221.972,99.036,0.0174958,156390,0.120093,8.87496e8,1.06582e8,8.93873e8
6.28319,230.255,101.857,0.0175684,151957,0.122104,8.58566e8,1.04834e8,8.64942e8
6.28319,238.540,104.617,0.0176428,147574,0.126748,8.29815e8,1.05177e8,8.36454e8
6.28319,246.824,107.384,0.0177100,143567,0.129237,8.03971e8,1.03903e8,8.10658e8
6.28319,255.109,110.157,0.0177772,139375,0.131315,7.77339e8,1.02076e8,7.84012e8
6.28319,264.887,113.401,0.0178570,134392,0.134931,7.45844e8,1.00637e8,7.52603e8
6.28319,273.156,116.176,0.0179232,130174,0.137718,7.19495e8,9.90874e7,7.26286e8
6.28319,281.441,118.998,0.0179962,125713,0.141642,6.91649e8,9.79663e7,6.98552e8
6.28319,289.724,121.771,0.0180720,121138,0.146089,6.63266e8,9.68956e7,6.70306e8
6.28319,298.010,124.532,0.0181395,117009,0.150700,6.37847e8,9.61236e7,6.45049e8
6.28319,309.876,128.475,0.0182470,110216,0.154918,5.96904e8,9.24711e7,6.04025e8
6.28319,318.148,130.429,0.0183172,105690,0.159778,5.69768e8,9.10366e7,5.76995e8
6.28319,326.432,130.262,0.0183585,102924,0.159161,5.53665e8,8.81218e7,5.60633e8

File: 60F_1_A.csv
Filename,60F_1_A
Instrument name,RSAG2
Operator,
rundate,5/30/2018
proceduresegments,Standard Oscillatory Temperature Ramp
[step]
Temperature Ramp - 1
Angular frequency,Step time,Temperature,Oscillation strain,Oscillation stress,Tan(delta),Storage modulus,Loss modulus,Complex modulus
rad/s,s,Â°C,%,Pa,,Pa,Pa,Pa
6.28319,8.02500,27.678,0.0191557,261773,0.0471828,1.36504e9,6.44061e7,1.36655e9
6.28319,16.3083,30.341,0.0191645,260133,0.0474361,1.35585e9,6.43160e7,1.35737e9
6.28319,24.5918,33.111,0.0191813,257616,0.0487859,1.34146e9,6.54444e7,1.34306e9
6.28319,32.8773,35.902,0.0192063,254493,0.0508339,1.32334e9,6.72705e7,1.32505e9
6.28319,41.1625,38.714,0.0192296,250756,0.0529284,1.30219e9,6.89227e7,1.30401e9
6.28319,49.4458,41.456,0.0192613,246399,0.0556804,1.27727e9,7.11188e7,1.27925e9
6.28319,57.8857,44.227,0.0192910,241881,0.0582250,1.25173e9,7.28821e7,1.25385e9
6.28319,66.1685,46.949,0.0193223,236876,0.0620939,1.22356e9,7.59755e7,1.22592e9
6.28319,74.4518,49.668,0.0193558,231732,0.0648929,1.19471e9,7.75279e7,1.19722e9
6.28319,82.7372,52.451,0.0193884,226386,0.0679890,1.16495e9,7.92038e7,1.16764e9
6.28319,97.8955,57.456,0.0194557,215052,0.0755301,1.10220e9,8.32496e7,1.10534e9
6.28319,106.139,60.251,0.0194932,208166,0.0804893,1.06444e9,8.56763e7,1.06789e9
6.28319,114.423,63.014,0.0195312,201204,0.0839885,1.02655e9,8.62186e7,1.03017e9
6.28319,122.708,65.844,0.0195683,194066,0.0897720,9.87761e8,8.86733e7,9.91733e8
6.28319,130.991,68.656,0.0196072,186356,0.0949694,9.46186e8,8.98588e7,9.50443e8
6.28319,139.277,71.415,0.0196419,178631,0.0996684,9.04958e8,9.01957e7,9.09441e8
6.28319,147.560,74.160,0.0196721,171410,0.105495,8.66528e8,9.14144e7,8.71337e8
6.28319,155.845,76.963,0.0197034,164280,0.109844,8.28783e8,9.10367e7,8.33768e8
6.28319,164.129,79.805,0.0197239,157790,0.114107,7.94838e8,9.06967e7,7.99996e8
6.28319,172.414,82.545,0.0197447,151460,0.117173,7.61882e8,8.92716e7,7.67094e8
6.28319,180.697,85.318,0.0197617,145413,0.120825,7.30523e8,8.82656e7,7.35836e8
6.28319,188.983,88.092,0.0197772,139980,0.124589,7.02353e8,8.75057e7,7.07783e8
6.28319,197.266,90.898,0.0197943,134345,0.128220,6.73193e8,8.63167e7,6.78704e8
6.28319,205.551,93.662,0.0198060,129015,0.131324,6.45848e8,8.48152e7,6.51394e8
6.28319,213.835,96.411,0.0198217,123926,0.134715,6.19609e8,8.34707e7,6.25206e8
6.28319,222.120,99.168,0.0198305,118842,0.138317,5.93636e8,8.21102e7,5.99287e8
6.28319,230.403,101.941,0.0198419,113923,0.141678,5.68475e8,8.05403e7,5.74152e8
6.28319,238.689,104.707,0.0198459,109427,0.142644,5.45860e8,7.78635e7,5.51385e8
6.28319,246.972,107.502,0.0198557,104768,0.147071,5.22030e8,7.67753e7,5.27646e8
6.28319,255.258,110.250,0.0198634,100478,0.149732,5.00267e8,7.49058e7,5.05843e8
6.28319,263.541,113.045,0.0198696,96138.1,0.154029,4.78205e8,7.36575e7,4.83844e8
6.28319,271.826,115.799,0.0198733,92083.0,0.155145,4.57873e8,7.10368e7,4.63351e8
6.28319,280.109,118.560,0.0198760,88298.4,0.158652,4.38759e8,6.96101e7,4.44247e8
6.28319,288.395,121.373,0.0198804,84598.2,0.160725,4.20144e8,6.75278e7,4.25536e8
6.28319,296.678,124.140,0.0198837,81074.6,0.164134,4.02361e8,6.60413e7,4.07745e8
6.28319,304.964,126.886,0.0198874,77641.9,0.167984,3.85014e8,6.46763e7,3.90408e8
6.28319,313.247,129.638,0.0198890,74409.9,0.169627,3.68858e8,6.25683e7,3.74126e8
6.28319,321.532,130.064,0.0198901,71347.9,0.172544,3.53488e8,6.09922e7,3.58712e8
6.28319,329.815,130.196,0.0198863,69638.3,0.168975,3.45288e8,5.83451e7,3.50183e8

File: 60F_4_B.csv
Filename,60F_4_B
Instrument name,RSAG2
Operator,
rundate,5/31/2018
proceduresegments,Standard Oscillatory Temperature Ramp
[step]
Temperature Ramp - 1
Angular frequency,Step time,Temperature,Oscillation strain,Oscillation stress,Tan(delta),Storage modulus,Loss modulus,Complex modulus
rad/s,s,Â°C,%,Pa,,Pa,Pa,Pa
6.28319,8.02500,29.649,0.0165468,265554,0.0438812,1.60333e9,7.03559e7,1.60487e9
6.28319,18.8865,31.632,0.0165500,265246,0.0442325,1.60113e9,7.08220e7,1.60270e9
6.28319,27.1415,33.854,0.0165634,264375,0.0433962,1.59464e9,6.92013e7,1.59614e9
6.28319,35.4248,36.382,0.0165841,262877,0.0441490,1.58357e9,6.99130e7,1.58511e9
6.28319,43.7103,38.998,0.0166111,260783,0.0448974,1.56835e9,7.04151e7,1.56993e9
6.28319,51.9935,41.753,0.0166490,258209,0.0464777,1.54922e9,7.20043e7,1.55090e9
6.28319,60.2788,44.579,0.0166921,255098,0.0480173,1.52650e9,7.32982e7,1.52825e9
6.28319,68.5623,47.472,0.0167404,251748,0.0510209,1.50188e9,7.66272e7,1.50383e9
6.28319,76.8475,50.286,0.0167951,247877,0.0531833,1.47381e9,7.83819e7,1.47589e9
6.28319,85.1308,53.090,0.0168562,243494,0.0563215,1.44225e9,8.12297e7,1.44454e9
6.28319,93.4162,55.871,0.0169269,238330,0.0583372,1.40560e9,8.19990e7,1.40799e9
6.28319,102.897,59.040,0.0170128,232106,0.0629450,1.36161e9,8.57068e7,1.36431e9
6.28319,116.909,63.748,0.0171631,221217,0.0699289,1.28578e9,8.99128e7,1.28892e9
6.28319,125.894,66.773,0.0172661,214041,0.0760436,1.23609e9,9.39966e7,1.23966e9
6.28319,134.151,69.565,0.0173657,206757,0.0828833,1.18653e9,9.83438e7,1.19060e9
6.28319,142.437,72.341,0.0174668,199392,0.0867138,1.13728e9,9.86178e7,1.14155e9
6.28319,150.722,75.161,0.0175635,192197,0.0925921,1.08964e9,1.00892e8,1.09430e9
6.28319,159.005,77.943,0.0176594,185059,0.0985270,1.04289e9,1.02752e8,1.04794e9
6.28319,167.290,80.745,0.0177497,178191,0.102126,9.98711e8,1.01995e8,1.00391e9
6.28319,175.574,83.524,0.0178287,171950,0.105768,9.59109e8,1.01443e8,9.64459e8
6.28319,183.859,86.328,0.0179119,165723,0.110225,9.19646e8,1.01368e8,9.25215e8
6.28319,195.873,90.308,0.0180161,157581,0.116164,8.68824e8,1.00926e8,8.74666e8
6.28319,204.150,93.084,0.0180832,152075,0.118099,8.35174e8,9.86334e7,8.40979e8
6.28319,212.435,95.859,0.0181488,146912,0.121282,8.03595e8,9.74616e7,8.09484e8
6.28319,220.720,98.702,0.0182074,142295,0.124827,7.75506e8,9.68043e7,7.81524e8
6.28319,229.004,101.459,0.0182640,137419,0.125458,7.46550e8,9.36609e7,7.52402e8
6.28319,237.289,104.196,0.0183205,133074,0.128714,7.20424e8,9.27287e7,7.26367e8
6.28319,245.574,106.987,0.0183753,128690,0.133264,6.94206e8,9.25128e7,7.00343e8
6.28319,253.858,109.751,0.0184307,124154,0.134913,6.67579e8,9.00648e7,6.73627e8
6.28319,262.143,112.503,0.0184801,120129,0.139597,6.43800e8,8.98722e7,6.50042e8
6.28319,270.426,115.313,0.0185306,116028,0.141298,6.19986e8,8.76030e7,6.26144e8
6.28319,278.712,118.128,0.0185759,112303,0.144209,5.98373e8,8.62907e7,6.04563e8
6.28319,286.995,120.889,0.0186249,108345,0.148556,5.75409e8,8.54806e7,5.81724e8
6.28319,299.857,125.167,0.0186942,102413,0.153858,5.41459e8,8.33080e7,5.47830e8
6.28319,308.103,127.905,0.0187410,98392.7,0.156839,5.18674e8,8.13482e7,5.25014e8
6.28319,316.387,130.484,0.0187884,94454.3,0.159349,4.96464e8,7.91111e7,5.02728e8
6.28319,330.858,130.214,0.0188356,90067.5,0.159086,4.72239e8,7.51265e7,4.78178e8

File: 60G_1_A.csv
Filename,60G_1_A
Instrument name,RSAG2
Operator,
rundate,5/30/2018
proceduresegments,Standard Oscillatory Temperature Ramp
[step]
Temperature Ramp - 1
Angular frequency,Step time,Temperature,Oscillation strain,Oscillation stress,Tan(delta),Storage modulus,Loss modulus,Complex modulus
rad/s,s,Â°C,%,Pa,,Pa,Pa,Pa
6.28319,8.02500,29.039,0.0165519,185922,0.0544160,1.12161e9,6.10333e7,1.12327e9
6.28319,21.8767,32.113,0.0165709,184824,0.0546996,1.11368e9,6.09181e7,1.11535e9
6.28319,30.1492,34.663,0.0165982,183465,0.0555282,1.10363e9,6.12828e7,1.10533e9
6.28319,38.4345,37.276,0.0166366,181577,0.0572068,1.08965e9,6.23354e7,1.09143e9
6.28319,46.7180,40.016,0.0166831,179352,0.0598663,1.07314e9,6.42447e7,1.07506e9
6.28319,55.0032,42.851,0.0167382,176675,0.0623811,1.05347e9,6.57168e7,1.05552e9
6.28319,63.2865,45.753,0.0168007,173631,0.0649645,1.03130e9,6.69980e7,1.03348e9
6.28319,71.5720,48.586,0.0168694,170307,0.0695601,1.00713e9,7.00557e7,1.00956e9
6.28319,79.8552,51.369,0.0169435,166641,0.0731020,9.80891e8,7.17051e7,9.83509e8
6.28319,88.1405,54.138,0.0170215,162841,0.0777580,9.53799e8,7.41655e7,9.56679e8
6.28319,106.850,60.417,0.0172202,152493,0.0873440,8.82186e8,7.70537e7,8.85545e8
6.28319,115.113,63.195,0.0173157,147600,0.0932751,8.48724e8,7.91648e7,8.52408e8
6.28319,123.396,65.968,0.0174175,142406,0.0980739,8.13697e8,7.98024e7,8.17601e8
6.28319,131.681,68.755,0.0175165,137359,0.104337,7.79932e8,8.13755e7,7.84166e8
6.28319,139.965,71.526,0.0176165,132099,0.109305,7.45421e8,8.14785e7,7.49860e8
6.28319,148.250,74.344,0.0177130,127012,0.114323,7.12415e8,8.14456e7,7.17055e8
6.28319,156.846,77.233,0.0178075,121914,0.119165,6.79810e8,8.10094e7,6.84619e8
6.28319,165.124,80.006,0.0178890,117515,0.124082,6.51914e8,8.08908e7,6.56913e8
6.28319,173.408,82.787,0.0179706,113088,0.127321,6.24259e8,7.94811e7,6.29299e8
6.28319,181.693,85.606,0.0180444,108999,0.131243,5.98923e8,7.86044e7,6.04059e8
6.28319,189.977,88.374,0.0181163,105039,0.134852,5.74606e8,7.74870e7,5.79807e8
6.28319,198.262,91.165,0.0181871,101143,0.137878,5.50911e8,7.59586e7,5.56123e8
6.28319,206.545,93.924,0.0182540,97375.7,0.141923,5.28156e8,7.49577e7,5.33448e8
6.28319,214.831,96.701,0.0183212,93553.9,0.144144,5.05409e8,7.28518e7,5.10632e8
6.28319,223.114,99.527,0.0183790,90212.3,0.147153,4.85616e8,7.14598e7,4.90845e8
6.28319,231.399,102.292,0.0184418,86778.9,0.152030,4.65210e8,7.07259e7,4.70555e8
6.28319,239.683,105.053,0.0184966,83522.9,0.152994,4.46365e8,6.82914e7,4.51559e8
6.28319,247.968,107.796,0.0185530,80302.6,0.156360,4.27632e8,6.68646e7,4.32828e8
6.28319,256.251,110.564,0.0186064,77080.4,0.158001,4.09193e8,6.46527e7,4.14269e8
6.28319,264.537,113.340,0.0186575,74141.0,0.162132,3.92257e8,6.35972e7,3.97379e8
6.28319,272.820,116.121,0.0187072,71135.0,0.163426,3.75276e8,6.13299e7,3.80254e8
6.28319,281.105,118.884,0.0187537,68349.0,0.165971,3.59539e8,5.96730e7,3.64457e8
6.28319,289.388,121.634,0.0188007,65634.6,0.167056,3.44335e8,5.75233e7,3.49106e8
6.28319,297.674,124.391,0.0188450,62968.3,0.171276,3.29342e8,5.64084e7,3.34138e8
6.28319,305.957,127.151,0.0188880,60281.2,0.172328,3.14515e8,5.41997e7,3.19151e8
6.28319,314.242,129.962,0.0189300,57807.4,0.174988,3.00804e8,5.26370e7,3.05375e8
6.28319,322.526,130.126,0.0189629,55649.2,0.176047,2.89019e8,5.08808e7,2.93463e8
6.28319,330.811,130.137,0.0189804,54429.5,0.172260,2.82605e8,4.86814e7,2.86767e8

File: 60G_4_B.csv
Filename,60G_4_B
Instrument name,RSAG2
Operator,
rundate,5/31/2018
proceduresegments,Standard Oscillatory Temperature Ramp
[step]
Temperature Ramp - 1
Angular frequency,Step time,Temperature,Oscillation strain,Oscillation stress,Tan(delta),Storage modulus,Loss modulus,Complex modulus
rad/s,s,Â°C,%,Pa,,Pa,Pa,Pa
6.28319,8.02500,28.957,0.0155944,289421,0.0389883,1.85452e9,7.23047e7,1.85593e9
6.28319,16.3083,30.731,0.0156035,288768,0.0383686,1.84931e9,7.09554e7,1.85067e9
6.28319,24.5917,32.909,0.0156197,287718,0.0390106,1.84062e9,7.18036e7,1.84202e9
6.28319,32.8772,35.486,0.0156440,286204,0.0393985,1.82807e9,7.20230e7,1.82948e9
6.28319,41.1603,38.144,0.0156770,284345,0.0413582,1.81223e9,7.49503e7,1.81377e9
6.28319,50.4115,41.263,0.0157290,281332,0.0432705,1.78695e9,7.73221e7,1.78862e9
6.28319,58.6990,44.117,0.0157855,278084,0.0463775,1.75974e9,8.16126e7,1.76164e9
6.28319,66.9843,46.971,0.0158502,274410,0.0492732,1.72918e9,8.52021e7,1.73128e9
6.28319,75.2677,49.804,0.0159179,270245,0.0496243,1.69566e9,8.41459e7,1.69775e9
6.28319,83.5530,52.641,0.0160040,265188,0.0542040,1.65458e9,8.96848e7,1.65701e9
6.28319,91.8363,55.405,0.0160970,259738,0.0579223,1.61088e9,9.33060e7,1.61358e9
6.28319,100.122,58.185,0.0161881,254245,0.0617321,1.56758e9,9.67698e7,1.57056e9
6.28319,114.385,62.952,0.0163625,243258,0.0686551,1.48319e9,1.01828e8,1.48668e9
6.28319,122.656,65.717,0.0164721,236842,0.0750798,1.43379e9,1.07649e8,1.43783e9
6.28319,131.369,68.641,0.0166009,228972,0.0795206,1.37494e9,1.09336e8,1.37928e9
6.28319,139.633,71.386,0.0167126,222056,0.0844333,1.32396e9,1.11786e8,1.32867e9
6.28319,150.888,75.165,0.0168657,212362,0.0906703,1.25399e9,1.13700e8,1.25913e9
6.28319,159.159,77.933,0.0169781,205404,0.0948023,1.20441e9,1.14181e8,1.20981e9
6.28319,167.444,80.712,0.0170830,198799,0.0987866,1.15809e9,1.14403e8,1.16372e9
6.28319,175.730,83.518,0.0171786,192506,0.101713,1.11486e9,1.13396e8,1.12062e9
6.28319,184.013,86.320,0.0172774,186372,0.106974,1.07259e9,1.14739e8,1.07871e9
6.28319,192.299,89.114,0.0173650,180471,0.107987,1.03327e9,1.11580e8,1.03928e9
6.28319,200.582,91.892,0.0174539,174836,0.113784,9.95281e8,1.13248e8,1.00170e9
6.28319,208.867,94.670,0.0175322,169483,0.115033,9.60364e8,1.10474e8,9.66697e8
6.28319,217.150,97.497,0.0176116,164260,0.119043,9.26143e8,1.10251e8,9.32682e8
6.28319,225.436,100.280,0.0176892,159112,0.122169,8.92850e8,1.09079e8,8.99489e8
6.28319,233.719,103.016,0.0177640,154101,0.125424,8.60748e8,1.07959e8,8.67492e8
6.28319,242.005,105.814,0.0178391,148955,0.126676,8.28373e8,1.04935e8,8.34993e8
6.28319,250.288,108.635,0.0179132,144099,0.130387,7.97676e8,1.04007e8,8.04428e8
6.28319,258.573,111.416,0.0179824,139430,0.135223,7.68376e8,1.03902e8,7.75370e8
6.28319,266.857,114.198,0.0180469,134767,0.134745,7.40072e8,9.97209e7,7.46760e8
6.28319,275.142,116.964,0.0181115,130284,0.138384,7.12550e8,9.86054e7,7.19341e8
6.28319,283.427,119.734,0.0181800,125970,0.143661,6.85863e8,9.85320e7,6.92904e8
6.28319,291.711,122.490,0.0182371,121886,0.146029,6.61330e8,9.65732e7,6.68344e8
6.28319,299.996,125.228,0.0182979,117557,0.148963,6.35450e8,9.46586e7,6.42462e8
6.28319,308.279,128.060,0.0183616,113383,0.153427,6.10357e8,9.36450e7,6.17499e8
6.28319,316.565,130.542,0.0184251,108874,0.159067,5.83565e8,9.28260e7,5.90902e8
6.28319,324.848,130.284,0.0184729,105265,0.157072,5.62932e8,8.84207e7,5.69834e8